Age (Ma)	d18O adj
      0	3.28
      0	3.58
  0.002	3.16
  0.002	2.91
  0.004	3.33
  0.004	3.16
  0.004	3.58
 0.0059	3.66
  0.006	3.23
  0.007	2.97
  0.008	3.23
  0.008	3.71
   0.01	 3.2
   0.01	3.11
 0.0118	4.35
  0.012	3.65
  0.012	4.34
  0.013	3.47
  0.015	4.32
  0.016	4.72
 0.0179	5.07
  0.018	4.82
  0.018	5.05
  0.018	 4.7
   0.02	4.97
   0.02	4.71
 0.0214	4.99
  0.023	4.42
  0.024	4.93
  0.024	4.62
  0.026	4.82
  0.027	4.77
  0.028	4.46
  0.028	4.59
   0.03	 4.3
 0.0305	4.65
  0.032	4.52
  0.033	4.54
  0.033	4.28
 0.0335	 4.8
  0.036	4.48
 0.0361	4.67
  0.037	4.18
 0.0388	4.59
   0.04	4.35
   0.04	4.57
  0.041	4.38
  0.042	 4.2
 0.0423	4.53
  0.044	4.58
 0.0457	4.45
  0.047	4.27
  0.048	4.13
  0.048	4.48
 0.0486	4.58
   0.05	4.43
 0.0507	4.45
  0.052	4.42
  0.052	3.93
  0.052	4.46
 0.0529	4.19
  0.055	4.23
  0.055	4.03
  0.056	4.47
 0.0569	4.55
  0.057	3.85
   0.06	4.54
 0.0607	4.66
  0.061	4.19
  0.064	4.35
  0.064	4.19
  0.064	4.53
 0.0645	4.37
  0.065	4.76
  0.068	4.39
  0.069	4.13
 0.0705	3.96
  0.072	3.96
  0.072	 4.2
 0.0741	3.99
  0.076	4.15
  0.076	4.14
  0.077	3.89
 0.0799	3.77
   0.08	3.61
   0.08	3.51
   0.08	4.05
 0.0829	4.04
  0.083	3.69
  0.084	 3.9
  0.086	4.29
  0.087	3.87
  0.088	3.84
  0.089	3.92
 0.0894	4.07
   0.09	4.25
  0.091	3.61
  0.092	 3.9
 0.0929	4.02
  0.095	3.68
  0.095	3.42
  0.096	3.95
 0.0967	3.81
  0.098	3.72
  0.099	3.74
    0.1	3.89
 0.1004	3.62
  0.101	3.85
  0.104	3.54
  0.104	3.47
  0.104	 3.8
 0.1062	3.97
  0.108	3.76
  0.109	3.85
  0.109	3.81
  0.112	   4
  0.112	3.68
  0.113	3.87
  0.114	3.28
  0.114	3.45
 0.1155	3.69
  0.116	3.43
  0.118	4.25
 0.1188	3.62
  0.119	2.72
   0.12	3.22
   0.12	3.25
 0.1216	3.19
  0.122	2.69
  0.124	 3.3
 0.1244	3.05
  0.126	2.79
  0.126	 4.4
 0.1269	3.84
  0.128	3.78
  0.131	3.69
 0.1312	4.64
  0.132	4.43
  0.133	 4.5
  0.135	4.99
  0.136	4.96
  0.136	4.77
  0.137	4.52
   0.14	4.89
   0.14	4.58
   0.14	4.79
  0.141	 4.8
  0.141	4.55
  0.143	4.55
  0.144	4.56
  0.144	4.74
 0.1447	4.93
  0.145	4.29
 0.1466	4.97
  0.148	4.68
  0.148	4.65
 0.1482	4.83
  0.149	5.07
 0.1498	4.74
  0.151	 4.3
  0.152	4.58
  0.152	4.58
  0.153	4.78
 0.1548	4.59
  0.156	4.06
  0.156	4.63
  0.157	 4.5
 0.1575	 4.6
   0.16	4.62
 0.1602	4.38
  0.161	4.77
  0.161	4.33
  0.163	4.35
  0.164	4.43
 0.1655	 4.3
  0.166	4.19
  0.167	4.53
 0.1676	4.36
  0.168	4.27
 0.1698	 4.5
  0.171	4.11
  0.171	4.03
  0.172	4.42
  0.172	4.25
 0.1741	4.52
  0.176	 4.2
  0.176	4.11
  0.176	4.29
 0.1763	4.61
   0.18	4.34
 0.1808	4.33
  0.181	4.14
  0.183	 4.5
  0.184	4.27
  0.186	4.44
  0.186	3.94
 0.1873	4.06
  0.188	4.04
  0.189	3.62
   0.19	3.43
  0.191	3.95
  0.192	3.84
 0.1938	3.73
  0.194	2.87
  0.195	3.43
 0.1955	3.48
  0.196	3.71
 0.1969	3.69
  0.199	3.39
 0.1996	 3.8
    0.2	 3.4
    0.2	 3.7
  0.202	 3.2
 0.2024	3.63
  0.204	3.78
  0.205	3.38
 0.2051	3.55
 0.2079	3.56
  0.208	3.74
 0.2115	3.61
  0.212	3.67
  0.214	3.41
  0.216	3.79
 0.2161	3.53
  0.217	3.56
  0.219	3.56
   0.22	3.58
   0.22	3.96
   0.22	3.98
  0.222	 4.2
 0.2223	4.67
  0.224	4.15
  0.224	4.08
  0.225	4.72
 0.2256	4.33
  0.228	4.14
  0.228	4.15
 0.2289	3.99
  0.229	4.01
  0.232	3.35
  0.232	4.09
 0.2321	4.28
  0.235	 4.4
 0.2354	3.64
  0.236	3.42
  0.236	3.91
  0.238	3.63
 0.2387	3.45
   0.24	3.18
   0.24	3.76
  0.242	 3.4
 0.2427	3.91
  0.243	3.64
  0.244	4.02
  0.244	3.96
 0.2451	 4.4
 0.2473	 4.7
  0.248	4.36
  0.248	4.37
  0.248	4.25
 0.2493	 4.7
 0.2515	4.64
  0.252	4.57
  0.252	4.31
  0.252	4.31
 0.2535	4.44
  0.255	4.67
 0.2557	4.38
  0.256	 4.2
  0.256	4.33
 0.2576	4.47
  0.259	4.25
 0.2599	4.12
   0.26	4.41
   0.26	4.36
 0.2619	4.39
 0.2627	3.55
  0.263	4.16
  0.264	 4.8
  0.264	4.38
 0.2651	4.14
  0.266	4.62
 0.2669	4.43
  0.267	4.29
  0.268	4.44
 0.2697	4.29
   0.27	4.44
  0.272	4.61
  0.272	4.44
 0.2724	4.03
  0.273	3.92
 0.2752	3.86
  0.276	4.43
  0.276	4.31
 0.2779	3.85
  0.278	3.61
   0.28	4.08
 0.2825	3.99
  0.283	 4.1
  0.284	3.58
  0.284	3.95
  0.287	3.73
 0.2872	4.22
  0.288	3.96
   0.29	3.47
  0.291	3.83
  0.292	4.08
  0.294	4.25
  0.294	4.35
  0.296	4.04
  0.296	4.09
 0.2965	4.19
  0.299	4.61
    0.3	4.41
    0.3	4.08
 0.3018	 3.9
  0.303	4.35
  0.304	4.09
  0.305	3.83
 0.3059	3.88
  0.308	3.67
  0.308	3.94
 0.3105	3.57
  0.312	3.29
  0.312	3.75
 0.3152	3.51
  0.316	4.04
  0.316	3.74
  0.318	 3.6
 0.3199	3.09
   0.32	4.18
   0.32	 3.7
  0.322	3.25
  0.324	3.56
 0.3245	2.93
  0.325	3.05
  0.327	3.58
  0.328	3.39
 0.3292	3.24
  0.331	3.29
  0.332	3.41
  0.333	3.31
 0.3338	3.53
  0.335	3.82
  0.336	3.77
 0.3387	3.81
   0.34	4.07
   0.34	4.24
 0.3405	4.77
  0.341	4.53
  0.343	4.85
  0.344	3.64
  0.344	4.56
 0.3442	4.52
  0.346	4.79
  0.347	 4.4
  0.348	 4.6
  0.349	4.49
  0.349	4.14
 0.3503	4.71
  0.352	4.45
  0.353	4.79
  0.353	4.33
 0.3536	4.37
  0.355	4.25
  0.356	4.72
  0.356	4.23
  0.356	 4.4
 0.3569	4.12
  0.357	4.61
   0.36	 4.1
   0.36	4.11
   0.36	4.34
 0.3602	4.44
  0.362	4.35
  0.363	3.88
  0.364	4.21
  0.365	4.39
  0.365	4.09
  0.366	4.46
  0.366	4.07
 0.3668	4.39
  0.368	3.93
  0.368	4.12
 0.3685	4.27
 0.3716	4.34
  0.372	4.03
  0.372	4.08
 0.3733	4.22
  0.375	4.14
  0.376	4.05
 0.3771	4.25
  0.378	4.03
 0.3799	 4.2
   0.38	4.02
  0.382	3.99
 0.3832	3.96
  0.384	3.92
  0.384	4.02
 0.3865	3.88
  0.388	3.97
  0.389	3.85
  0.389	3.48
 0.3898	3.78
  0.392	3.84
 0.3931	3.74
  0.395	3.54
  0.396	3.41
 0.3964	3.56
 0.3979	3.41
  0.398	3.66
 0.3987	3.29
    0.4	3.19
 0.4009	3.04
  0.401	3.24
 0.4016	2.81
 0.4033	3.18
  0.404	3.15
 0.4046	3.33
  0.405	2.89
  0.406	3.67
  0.406	3.14
 0.4075	3.64
  0.408	3.25
 0.4089	3.63
   0.41	3.34
   0.41	3.34
 0.4106	3.81
  0.412	 3.1
  0.412	3.35
 0.4125	4.77
  0.413	3.24
  0.416	3.45
 0.4162	4.74
 0.4179	4.82
  0.418	3.03
  0.419	3.87
 0.4198	4.96
   0.42	4.46
   0.42	3.55
  0.423	3.47
  0.423	3.62
  0.424	4.13
  0.425	3.73
  0.426	4.88
 0.4271	 4.7
  0.428	4.65
  0.428	4.79
   0.43	4.56
  0.431	4.67
 0.4312	4.45
  0.432	5.18
  0.432	4.86
 0.4344	4.76
  0.436	5.21
  0.436	4.57
  0.436	 4.9
  0.438	4.68
   0.44	5.05
   0.44	4.89
  0.441	4.27
 0.4417	4.69
  0.444	4.83
  0.444	4.71
  0.445	4.43
 0.4453	4.63
  0.447	 4.8
  0.448	4.56
   0.45	4.25
  0.452	5.01
  0.452	4.58
 0.4526	4.27
  0.454	4.11
 0.4545	3.91
  0.455	4.81
  0.456	4.61
 0.4577	4.03
   0.46	4.15
   0.46	4.54
  0.461	4.77
 0.4613	4.37
  0.464	 4.2
  0.464	4.46
 0.4645	4.43
  0.465	 4.2
  0.467	4.38
  0.468	4.33
 0.4686	3.99
  0.469	4.61
  0.471	4.67
  0.471	4.92
  0.472	4.22
 0.4722	3.76
  0.474	4.14
  0.475	3.85
 0.4759	3.52
  0.476	 4.2
  0.478	4.02
 0.4795	3.83
   0.48	4.41
   0.48	4.11
  0.481	4.32
  0.482	3.92
  0.483	3.95
  0.483	3.63
  0.484	3.84
 0.4849	3.79
  0.485	3.86
  0.485	4.12
  0.487	3.77
  0.488	3.28
  0.488	3.71
   0.49	3.45
 0.4913	3.97
  0.492	3.57
  0.492	3.63
  0.493	3.95
  0.495	3.54
  0.496	3.66
  0.497	3.64
 0.4973	4.24
  0.498	 3.7
    0.5	3.79
  0.501	3.89
  0.502	3.75
  0.503	3.92
  0.504	 3.9
  0.505	4.11
 0.5057	4.58
  0.506	3.64
  0.508	3.93
  0.508	3.95
  0.511	4.19
  0.511	3.98
  0.512	4.02
  0.513	4.18
  0.516	3.89
  0.516	4.18
 0.5168	4.53
  0.517	4.18
   0.52	4.15
  0.521	3.75
  0.523	3.98
  0.524	4.06
  0.525	 3.7
  0.526	3.86
  0.528	4.04
 0.5295	4.53
   0.53	3.86
  0.531	3.92
  0.532	 4.2
  0.535	4.19
  0.536	3.77
  0.536	4.27
   0.54	4.45
   0.54	4.28
  0.541	4.33
 0.5422	4.28
  0.544	 4.4
  0.545	 4.7
  0.545	4.18
  0.548	4.39
  0.549	4.68
   0.55	4.29
  0.552	4.28
  0.554	4.82
  0.554	4.06
 0.5549	4.25
  0.556	4.26
  0.558	4.47
  0.558	3.99
   0.56	4.15
  0.562	3.83
  0.564	4.06
  0.565	4.31
  0.567	 3.6
 0.5676	3.71
  0.568	3.92
 0.5707	3.73
  0.571	3.92
  0.571	3.58
  0.572	3.75
 0.5735	3.84
  0.574	3.69
  0.575	3.59
  0.576	 3.5
  0.577	3.11
  0.578	3.32
  0.579	4.06
   0.58	 3.8
   0.58	3.58
 0.5805	3.73
 0.5821	3.66
  0.583	4.13
  0.584	3.86
 0.5846	3.69
  0.585	 4.5
  0.587	3.98
  0.588	4.06
 0.5883	 3.6
 0.5898	3.86
 0.5915	3.68
  0.592	3.67
  0.592	4.04
  0.593	3.59
 0.5954	3.48
  0.596	3.69
  0.596	 3.8
  0.596	 3.8
  0.596	 3.9
  0.596	 3.6
  0.596	 3.9
 0.5967	3.52
    0.6	3.83
 0.6009	3.23
  0.601	4.45
  0.601	3.85
  0.604	3.98
  0.605	3.49
  0.606	4.23
  0.608	3.97
 0.6092	3.66
   0.61	3.73
  0.612	3.31
  0.612	4.35
  0.612	3.69
  0.614	3.62
 0.6153	3.45
  0.616	3.39
 0.6166	3.63
  0.617	2.85
  0.619	3.25
 0.6192	3.99
   0.62	 3.7
   0.62	3.73
 0.6211	4.08
  0.623	3.95
  0.623	4.42
  0.624	4.41
  0.625	4.04
  0.627	4.83
  0.628	5.01
  0.628	4.36
  0.628	4.79
   0.63	4.78
  0.631	4.28
  0.632	5.06
  0.632	5.08
  0.635	4.78
  0.636	4.98
  0.636	4.99
  0.638	4.56
 0.6399	4.67
   0.64	4.83
 0.6413	4.76
  0.642	4.36
  0.644	4.78
 0.6443	4.65
  0.646	4.16
  0.648	4.52
  0.648	4.79
  0.649	4.26
  0.652	4.72
  0.653	4.29
  0.656	4.59
  0.657	4.25
 0.6572	 4.6
 0.6598	4.55
   0.66	4.25
   0.66	4.52
 0.6625	4.59
  0.664	4.12
  0.664	4.52
 0.6664	4.51
 0.6678	4.44
  0.668	4.03
  0.668	4.45
 0.6708	4.25
  0.671	3.92
  0.672	4.36
 0.6731	3.93
  0.674	4.91
  0.675	4.07
 0.6757	3.84
  0.676	4.28
  0.677	4.65
 0.6784	3.78
   0.68	4.48
   0.68	4.18
  0.681	3.72
  0.683	4.26
 0.6837	3.56
  0.684	3.98
  0.685	3.36
  0.686	4.13
 0.6863	3.47
  0.688	3.77
  0.689	3.42
   0.69	3.48
  0.692	3.62
  0.692	3.68
  0.694	3.43
  0.694	3.36
  0.696	 3.5
  0.696	3.75
 0.6978	3.59
    0.7	3.93
  0.701	3.64
  0.701	3.49
  0.704	3.85
  0.704	4.18
  0.705	3.55
 0.7078	3.93
  0.708	 4.3
  0.712	4.34
  0.713	4.38
  0.713	4.19
  0.715	4.84
  0.715	3.86
  0.716	4.35
 0.7165	4.53
   0.72	4.57
   0.72	4.37
  0.723	4.33
 0.7235	4.44
  0.724	 4.3
  0.725	3.83
 0.7269	4.42
  0.728	 4.2
   0.73	3.95
 0.7304	4.05
  0.732	4.22
 0.7339	3.78
  0.734	3.99
  0.736	 3.9
  0.736	4.23
  0.739	4.02
   0.74	 4.2
 0.7409	4.03
  0.743	4.25
  0.744	4.15
 0.7448	4.09
  0.745	4.28
 0.7478	4.41
  0.748	4.13
 0.7513	4.55
  0.752	4.19
 0.7548	4.53
  0.755	4.66
  0.755	4.38
  0.756	4.28
  0.757	 4.3
  0.758	4.75
 0.7583	4.48
   0.76	4.47
   0.76	4.28
  0.761	3.93
 0.7618	4.37
  0.763	3.99
  0.764	4.17
 0.7652	4.32
  0.766	4.11
 0.7671	 4.2
  0.768	4.12
  0.768	4.05
  0.769	4.14
  0.772	3.88
 0.7741	3.96
  0.775	4.02
  0.776	3.71
 0.7778	3.58
   0.78	3.71
   0.78	3.59
  0.784	3.27
  0.784	 3.6
 0.7847	3.75
  0.788	4.28
  0.788	4.14
  0.788	3.82
   0.79	3.93
  0.791	4.72
  0.792	4.16
  0.793	4.66
  0.796	4.44
  0.796	4.41
 0.7966	4.47
 0.7977	4.32
 0.7994	4.52
    0.8	 4.3
    0.8	4.39
 0.8035	4.16
  0.804	4.31
  0.805	4.19
  0.806	4.44
  0.807	 4.5
  0.808	4.17
 0.8082	3.74
  0.811	3.67
  0.812	3.83
  0.812	4.08
  0.816	   4
  0.816	4.07
 0.8182	3.74
   0.82	4.05
  0.822	3.58
  0.824	3.92
  0.824	 3.9
 0.8253	3.81
  0.828	3.85
  0.832	4.12
  0.832	3.78
 0.8347	3.83
  0.836	3.81
  0.836	3.78
   0.84	3.67
   0.84	3.73
  0.843	3.56
  0.843	3.25
  0.844	3.63
 0.8478	3.54
  0.848	3.59
  0.851	3.87
  0.852	3.61
 0.8527	3.33
  0.856	3.72
 0.8598	3.67
   0.86	2.86
   0.86	3.72
 0.8623	4.17
  0.864	3.71
  0.865	4.35
 0.8678	3.85
  0.868	 4.2
  0.872	4.64
  0.872	4.56
  0.873	 4.6
  0.876	4.59
 0.8781	 4.4
   0.88	4.53
 0.8812	3.81
  0.884	4.74
  0.884	4.42
 0.8843	4.34
  0.887	4.28
  0.888	4.38
   0.89	4.31
   0.89	4.52
 0.8904	3.93
  0.892	 4.4
  0.893	4.28
  0.896	4.13
  0.896	 4.3
 0.8966	 4.1
  0.897	3.82
    0.9	4.21
  0.902	4.19
 0.9031	4.04
  0.904	 3.9
  0.904	4.14
 0.9058	4.11
  0.908	3.95
  0.908	4.15
 0.9089	 3.9
  0.909	3.77
  0.911	3.79
  0.911	4.19
 0.9119	4.09
  0.912	4.23
 0.9134	4.06
  0.915	4.48
  0.916	4.57
  0.916	4.28
 0.9186	3.37
   0.92	4.25
 0.9237	4.28
  0.924	3.92
  0.924	4.08
 0.9276	3.99
  0.928	3.93
  0.929	4.07
 0.9312	3.82
  0.932	3.83
 0.9336	3.81
  0.936	3.55
  0.936	 3.8
  0.936	3.78
  0.939	3.74
   0.94	3.63
 0.9404	3.42
  0.944	3.51
  0.944	3.43
  0.944	3.58
  0.944	3.53
 0.9464	3.38
  0.948	3.48
   0.95	3.17
 0.9517	3.28
  0.952	3.45
  0.953	2.95
 0.9549	3.29
  0.956	3.18
  0.956	 3.8
  0.958	3.46
   0.96	4.48
   0.96	4.06
  0.962	4.23
  0.964	4.22
 0.9641	4.42
 0.9661	3.85
  0.967	 4.1
  0.968	4.13
 0.9705	4.09
  0.971	3.88
  0.972	3.89
 0.9738	3.84
  0.976	3.45
  0.976	3.85
 0.9776	3.81
   0.98	3.98
   0.98	   4
 0.9809	3.79
  0.984	3.95
  0.984	4.02
 0.9852	3.97
  0.988	3.64
  0.988	3.92
  0.989	4.05
  0.989	4.25
  0.992	3.67
  0.992	 3.9
 0.9926	3.87
  0.996	3.47
  0.996	3.94
 0.9973	3.61
      1	4.01
 1.0014	3.77
 1.0033	3.56
  1.004	4.13
  1.005	4.41
 1.0073	4.12
  1.008	4.19
 1.0097	4.22
   1.01	 3.9
  1.012	4.06
  1.013	3.98
  1.014	 3.9
  1.016	3.89
 1.0165	3.72
  1.018	 3.6
 1.0191	3.77
   1.02	3.75
 1.0216	3.59
  1.022	3.89
  1.024	3.72
 1.0241	3.38
 1.0249	3.68
  1.026	 3.3
 1.0276	3.54
  1.028	3.83
 1.0299	3.77
  1.031	3.77
  1.032	3.55
  1.032	3.99
 1.0336	4.26
 1.0343	4.28
  1.035	4.14
 1.0356	4.46
  1.036	4.21
 1.0373	4.39
  1.038	4.08
   1.04	4.38
 1.0409	4.51
  1.044	4.36
  1.048	4.36
  1.048	 4.2
 1.0481	3.85
 1.0517	3.94
  1.052	3.81
  1.052	4.14
  1.054	3.84
  1.056	3.71
  1.056	4.02
 1.0569	3.88
   1.06	3.18
   1.06	3.83
 1.0609	3.14
 1.0628	3.14
  1.064	3.25
  1.064	3.56
 1.0659	2.93
  1.068	2.98
  1.068	3.34
 1.0694	2.99
  1.072	3.38
  1.073	 3.2
  1.074	3.31
  1.076	3.59
 1.0778	3.32
  1.078	3.81
   1.08	3.53
   1.08	3.75
  1.084	3.87
  1.087	3.53
 1.0873	3.69
  1.088	3.88
  1.092	4.01
 1.0921	3.84
  1.093	3.79
 1.0947	3.75
  1.096	4.16
 1.0991	3.59
    1.1	4.03
 1.1017	3.75
  1.103	3.91
  1.104	3.95
  1.106	3.77
 1.1071	3.53
  1.108	3.93
 1.1106	3.43
  1.111	3.72
  1.112	3.98
  1.116	3.83
  1.116	4.04
  1.117	3.92
   1.12	4.17
 1.1237	4.17
  1.124	4.24
 1.1275	4.63
  1.128	4.21
 1.1293	4.15
  1.132	4.67
  1.132	4.19
 1.1331	3.98
  1.136	4.18
 1.1375	3.83
   1.14	4.09
 1.1433	3.78
  1.144	3.98
  1.145	3.72
 1.1472	3.67
  1.148	3.83
  1.148	3.89
   1.15	3.98
 1.1505	 3.4
  1.152	3.84
  1.155	3.82
  1.156	3.76
  1.159	 3.7
   1.16	3.75
 1.1602	3.37
  1.163	3.39
  1.164	3.74
 1.1658	3.39
  1.166	3.85
  1.168	3.66
 1.1697	3.41
   1.17	3.61
  1.172	3.59
  1.173	3.49
  1.174	3.33
 1.1758	3.72
  1.176	3.66
  1.178	3.36
 1.1791	3.31
   1.18	3.82
 1.1812	3.36
  1.182	 3.6
  1.184	3.88
 1.1855	3.43
  1.186	3.09
  1.188	3.87
 1.1888	4.09
  1.189	3.26
 1.1899	3.54
  1.192	3.94
 1.1927	4.14
  1.193	3.45
  1.196	4.16
  1.196	4.08
 1.1965	4.19
  1.197	3.94
    1.2	 4.2
 1.2004	4.43
  1.203	4.09
  1.204	4.35
 1.2042	4.43
  1.206	4.31
  1.206	4.15
  1.208	4.41
 1.2081	4.21
  1.211	4.69
 1.2119	4.22
  1.212	4.33
  1.213	4.57
 1.2137	 4.5
  1.216	4.11
  1.217	3.71
 1.2176	4.15
  1.218	 3.7
 1.2196	4.06
   1.22	3.83
  1.222	4.14
  1.224	3.78
  1.224	 3.6
  1.226	3.52
 1.2276	 3.6
  1.228	3.46
   1.23	3.11
 1.2317	3.18
  1.232	3.35
  1.234	3.12
 1.2358	3.11
  1.236	3.35
 1.2399	 3.2
   1.24	3.43
  1.241	3.32
  1.244	3.16
  1.244	 4.2
  1.244	3.71
  1.248	 4.5
  1.248	4.03
 1.2488	4.36
 1.2499	4.43
  1.252	4.32
  1.252	 4.1
 1.2523	4.51
  1.253	4.01
 1.2536	4.48
  1.255	 4.4
  1.256	4.14
  1.257	4.22
  1.258	 3.6
   1.26	3.86
   1.26	4.11
  1.264	3.92
 1.2642	 3.9
  1.267	3.92
 1.2675	3.81
  1.268	3.75
   1.27	3.28
 1.2718	3.75
  1.272	 3.7
  1.275	3.37
 1.2757	3.88
  1.276	3.69
  1.279	3.37
   1.28	3.75
 1.2817	3.92
  1.284	3.88
  1.284	3.93
  1.285	3.73
 1.2852	3.82
  1.288	4.16
 1.2891	4.35
  1.291	4.31
 1.2919	4.35
  1.292	4.16
 1.2929	4.24
  1.296	4.04
 1.2967	3.99
    1.3	4.18
    1.3	3.97
 1.3006	3.64
 1.3039	3.65
  1.304	3.95
 1.3056	3.56
  1.308	3.95
 1.3091	3.54
  1.312	3.87
 1.3144	3.94
  1.315	 3.7
  1.316	3.78
 1.3172	3.88
   1.32	3.84
 1.3205	   4
 1.3237	3.38
  1.324	4.02
 1.3269	4.05
  1.327	3.93
  1.328	 4.1
 1.3301	3.78
  1.332	4.08
 1.3334	4.13
  1.336	4.31
  1.336	4.09
 1.3366	4.26
 1.3379	4.09
   1.34	4.04
  1.341	3.71
 1.3427	3.49
  1.344	3.51
  1.344	3.86
 1.3458	3.57
  1.348	3.59
 1.3503	 3.2
  1.352	3.47
 1.3543	3.09
  1.355	3.09
  1.356	 3.5
 1.3588	3.37
  1.359	3.24
   1.36	3.67
  1.362	3.71
  1.363	3.74
 1.3636	3.84
  1.364	3.99
 1.3651	4.09
 1.3665	4.21
  1.367	3.62
  1.368	4.14
 1.3689	4.19
 1.3699	4.17
  1.372	4.25
  1.372	4.12
 1.3751	3.71
  1.376	   4
  1.376	4.12
 1.3796	3.75
   1.38	3.91
  1.382	4.28
  1.384	3.71
 1.3848	3.54
  1.387	3.62
  1.388	3.68
   1.39	2.71
 1.3901	3.48
  1.392	3.68
  1.393	3.86
 1.3953	3.38
  1.396	3.68
  1.398	2.97
    1.4	3.69
 1.4006	3.59
  1.403	3.21
  1.404	3.71
 1.4058	4.05
  1.408	3.49
  1.408	3.78
 1.4117	4.15
  1.412	3.97
  1.413	3.99
  1.416	   4
  1.418	4.19
   1.42	3.93
 1.4208	3.88
  1.424	 3.9
 1.4249	 4.1
  1.425	 4.3
  1.428	3.85
   1.43	2.99
  1.432	3.13
  1.432	 3.7
  1.434	3.43
 1.4341	3.62
  1.436	3.55
  1.437	3.39
   1.44	3.46
 1.4403	3.23
  1.444	3.37
  1.444	3.39
  1.446	3.29
 1.4466	3.33
  1.448	3.16
  1.448	3.43
  1.451	3.32
  1.452	 3.5
 1.4528	3.48
  1.455	 3.3
  1.456	3.56
 1.4567	4.04
 1.4584	4.26
  1.459	4.34
 1.4593	3.93
   1.46	3.96
 1.4613	4.38
 1.4623	4.34
  1.464	4.16
 1.4644	4.11
  1.465	4.19
 1.4679	3.56
  1.468	4.11
  1.469	3.85
  1.472	3.71
  1.473	4.41
  1.476	3.45
  1.477	3.91
 1.4779	3.31
   1.48	3.48
  1.484	3.46
  1.485	3.26
  1.488	3.34
  1.488	3.27
  1.488	3.44
  1.492	3.89
  1.493	3.38
  1.493	3.83
  1.496	3.68
  1.496	4.15
  1.496	4.11
  1.499	4.62
    1.5	4.22
 1.5004	4.27
  1.503	3.97
 1.5031	4.37
  1.504	4.37
  1.506	3.99
  1.508	3.86
  1.508	4.32
 1.5088	4.44
 1.5115	4.22
  1.512	 4.2
  1.513	3.63
 1.5144	   4
  1.516	4.08
  1.516	3.83
  1.516	3.99
 1.5174	   4
   1.52	3.78
 1.5204	3.64
 1.5233	3.58
  1.524	3.73
  1.525	3.52
 1.5263	3.66
 1.5279	3.62
  1.528	3.87
  1.532	 4.8
  1.532	   4
 1.5335	4.27
  1.536	 4.2
  1.539	3.83
 1.5397	4.42
   1.54	4.34
 1.5426	4.21
  1.543	4.15
  1.544	4.28
 1.5472	4.08
  1.548	 4.1
  1.549	4.07
 1.5493	3.91
  1.552	3.87
 1.5553	3.92
  1.556	 3.9
  1.556	3.66
 1.5568	 3.7
 1.5581	3.54
   1.56	3.54
 1.5613	3.44
  1.563	3.27
 1.5638	 3.5
  1.564	3.63
 1.5662	3.53
  1.567	3.87
 1.5679	3.59
  1.568	3.84
  1.571	3.88
 1.5712	3.97
  1.572	   4
  1.573	4.16
  1.576	4.07
 1.5767	4.39
  1.579	3.71
 1.5796	4.34
   1.58	4.08
 1.5829	 4.2
  1.584	   4
 1.5858	4.03
  1.588	4.49
  1.588	3.85
 1.5895	3.94
  1.592	3.75
 1.5929	 3.7
  1.596	3.66
  1.598	3.34
 1.5995	3.94
    1.6	3.52
  1.601	 3.9
  1.602	3.44
  1.604	 3.4
  1.606	3.66
 1.6066	3.45
  1.608	3.37
  1.612	3.42
 1.6123	3.53
  1.615	3.88
  1.616	3.61
 1.6161	3.52
 1.6189	3.82
  1.619	3.66
   1.62	3.76
  1.622	3.51
 1.6227	3.95
  1.624	3.83
  1.626	3.62
  1.627	3.94
  1.628	3.92
 1.6293	3.79
  1.632	3.87
 1.6326	3.87
  1.634	3.79
  1.634	3.51
  1.636	3.59
 1.6393	 3.5
   1.64	3.28
   1.64	3.62
  1.643	3.79
  1.644	 3.8
 1.6459	3.94
  1.646	3.56
  1.648	3.96
  1.648	4.09
  1.652	4.42
  1.652	 4.3
 1.6524	4.38
 1.6557	4.23
  1.656	4.26
  1.658	3.99
   1.66	4.16
 1.6623	4.32
  1.663	4.06
  1.664	4.02
 1.6656	4.34
  1.668	3.83
  1.669	4.39
 1.6704	3.79
  1.671	4.18
  1.672	 3.7
  1.675	4.38
 1.6754	3.73
  1.676	3.67
 1.6787	3.43
  1.679	3.98
   1.68	3.71
 1.6819	 3.5
  1.683	3.53
  1.684	3.81
 1.6852	3.74
  1.687	3.46
  1.688	3.89
 1.6885	3.59
  1.689	3.82
   1.69	3.57
 1.6918	3.94
  1.692	3.49
  1.692	3.89
 1.6951	3.61
  1.696	3.77
  1.696	3.94
 1.6979	4.14
    1.7	 4.1
 1.7003	4.24
  1.701	4.32
  1.704	4.06
  1.704	4.07
 1.7053	3.74
  1.706	3.88
 1.7078	3.56
  1.708	3.86
  1.709	4.12
  1.712	3.73
 1.7124	3.54
  1.714	3.38
 1.7153	3.72
  1.716	 3.8
  1.717	3.78
  1.719	3.67
 1.7199	4.08
   1.72	3.83
 1.7228	3.69
  1.723	3.61
  1.724	3.84
 1.7257	3.74
  1.728	4.23
  1.728	3.88
 1.7294	3.49
  1.732	3.57
  1.732	 3.6
 1.7327	3.53
  1.735	 3.4
 1.7358	3.86
  1.736	3.36
  1.736	3.38
  1.739	3.33
   1.74	 3.5
 1.7416	 3.9
  1.743	4.56
  1.744	3.73
 1.7443	3.79
 1.7474	4.07
  1.748	3.83
  1.749	3.67
 1.7501	3.84
  1.751	3.62
  1.752	3.75
  1.753	4.13
  1.755	3.48
 1.7551	3.26
  1.756	 3.6
  1.758	3.37
  1.758	3.62
   1.76	 3.5
 1.7609	 3.4
  1.762	3.41
  1.763	3.82
  1.764	3.54
  1.764	3.45
  1.765	3.39
 1.7651	3.55
  1.766	3.78
  1.767	3.35
 1.7675	3.76
  1.768	3.46
  1.769	3.42
   1.77	3.27
  1.772	3.51
  1.772	3.55
 1.7722	3.99
  1.774	3.61
  1.776	3.59
  1.776	3.73
  1.778	3.42
 1.7787	   4
  1.779	 3.4
   1.78	3.47
   1.78	3.89
  1.781	3.58
 1.7819	4.03
  1.782	3.84
  1.784	3.92
  1.785	3.61
  1.785	3.76
 1.7851	3.89
  1.788	4.04
 1.7883	3.64
  1.789	4.35
  1.789	4.09
  1.792	4.09
  1.792	4.09
  1.793	3.32
 1.7947	3.46
  1.795	 4.1
  1.796	3.68
  1.796	4.03
  1.796	3.94
 1.7983	3.69
  1.799	3.87
  1.799	3.94
    1.8	3.77
 1.8011	3.59
  1.802	3.44
  1.802	 4.1
  1.804	 3.6
 1.8043	3.46
  1.805	 3.9
  1.806	3.74
  1.807	 3.9
 1.8075	3.58
  1.808	3.52
   1.81	3.87
 1.8107	3.45
  1.812	 3.5
  1.813	3.44
  1.813	3.69
  1.814	3.66
  1.815	3.52
  1.816	3.54
 1.8172	4.32
  1.818	 3.6
   1.82	3.67
   1.82	 3.5
 1.8204	3.87
  1.821	3.38
  1.823	3.59
  1.824	3.47
 1.8251	 3.6
  1.826	3.64
 1.8268	3.62
  1.827	3.68
  1.828	3.64
  1.829	3.53
 1.8304	3.63
  1.832	3.92
  1.833	3.56
 1.8332	3.46
  1.834	3.71
  1.836	 3.6
  1.836	4.09
 1.8364	3.58
  1.837	3.38
  1.839	3.74
  1.839	3.97
   1.84	3.88
   1.84	4.16
  1.841	   4
 1.8428	3.58
  1.843	3.99
  1.843	3.73
  1.844	4.15
  1.845	3.58
 1.8465	3.56
  1.847	4.25
  1.848	3.57
  1.848	3.99
 1.8492	3.47
   1.85	3.54
  1.852	3.41
  1.852	3.93
 1.8524	 3.6
  1.854	3.14
  1.855	3.22
  1.856	3.89
  1.857	3.51
 1.8572	3.49
  1.858	3.25
 1.8589	3.69
  1.859	3.53
   1.86	3.86
  1.861	3.75
  1.861	3.53
  1.864	3.65
  1.864	3.66
  1.864	 3.8
 1.8653	3.57
  1.866	3.69
  1.868	3.59
  1.868	3.84
  1.868	 3.6
 1.8685	3.36
   1.87	 3.6
  1.871	3.42
  1.871	3.73
 1.8717	3.66
  1.872	3.59
 1.8749	3.46
  1.875	3.62
  1.876	3.22
  1.876	3.77
  1.878	3.61
 1.8781	 3.8
   1.88	3.62
   1.88	3.83
 1.8813	3.94
  1.882	3.66
  1.882	3.67
  1.884	3.56
  1.884	3.73
 1.8845	4.07
  1.886	3.43
  1.888	3.38
  1.888	3.62
 1.8892	4.14
   1.89	   3
   1.89	3.36
 1.8909	3.93
  1.892	3.22
  1.892	3.51
  1.892	3.57
  1.894	3.21
  1.894	3.47
 1.8946	4.16
  1.896	3.47
  1.896	3.54
  1.897	3.16
  1.898	3.52
    1.9	3.54
    1.9	3.49
 1.9006	3.93
  1.901	3.68
  1.902	3.75
 1.9038	3.97
  1.904	3.95
  1.904	3.54
  1.906	3.67
  1.906	3.77
  1.907	3.77
  1.908	3.82
  1.908	4.07
  1.908	3.72
 1.9081	3.69
   1.91	 4.1
 1.9102	3.78
  1.912	3.95
  1.912	4.07
  1.912	4.01
 1.9134	3.61
  1.914	 4.2
  1.915	 4.1
  1.916	4.31
  1.916	4.17
 1.9162	3.57
  1.918	 3.9
  1.918	4.07
   1.92	3.83
   1.92	 3.9
   1.92	4.08
 1.9213	3.34
  1.922	3.84
  1.923	3.46
  1.923	3.84
  1.924	3.86
  1.924	3.95
  1.925	3.63
  1.926	3.94
 1.9267	3.29
  1.928	3.85
  1.928	3.85
  1.929	3.38
  1.929	3.64
  1.931	3.49
  1.932	3.82
  1.932	3.77
 1.9326	4.04
  1.933	3.44
  1.935	3.55
 1.9359	4.13
  1.936	3.47
  1.936	3.78
  1.937	3.65
  1.939	3.37
  1.939	3.54
 1.9391	3.91
   1.94	3.77
  1.942	3.29
  1.942	3.65
 1.9423	4.13
  1.944	3.27
  1.944	3.57
  1.944	3.53
 1.9455	3.61
  1.946	3.82
  1.946	3.52
  1.948	3.52
  1.948	3.54
 1.9487	3.95
  1.951	3.97
  1.952	 3.6
  1.952	3.81
  1.953	3.81
  1.953	3.88
  1.954	 3.9
  1.955	3.95
 1.9551	3.36
  1.956	3.97
  1.957	3.98
  1.958	3.89
 1.9583	3.22
  1.959	3.85
   1.96	3.97
  1.961	3.88
 1.9615	3.68
  1.962	3.89
  1.962	3.64
 1.9634	3.46
  1.964	3.78
  1.964	3.87
  1.966	3.81
  1.968	3.68
  1.968	3.69
  1.969	3.58
  1.971	3.55
  1.971	3.58
 1.9714	4.06
  1.972	3.49
  1.972	3.54
  1.973	3.25
 1.9731	3.98
  1.974	3.06
  1.974	3.37
  1.975	3.44
  1.976	3.46
 1.9767	3.97
  1.978	3.49
  1.979	 3.4
  1.979	3.32
 1.9795	 3.8
   1.98	3.48
  1.981	3.53
  1.981	3.34
  1.982	3.25
 1.9827	3.78
  1.983	3.33
  1.984	3.33
  1.984	3.63
  1.985	3.93
 1.9863	3.52
  1.987	4.01
  1.988	3.83
 1.9891	3.65
   1.99	3.75
  1.992	3.93
 1.9923	3.64
  1.993	4.06
  1.993	3.74
 1.9955	3.37
  1.996	3.78
  1.996	 3.8
 1.9987	 3.3
  1.999	3.51
  1.999	3.79
      2	3.72
  2.002	3.68
  2.003	4.05
  2.004	3.68
 2.0047	3.38
  2.005	3.83
  2.007	3.78
  2.008	3.45
  2.008	3.55
   2.01	3.77
 2.0111	3.45
  2.012	3.66
  2.012	3.44
  2.013	3.77
  2.013	3.62
 2.0148	3.59
  2.016	3.59
  2.016	 3.4
  2.017	3.37
 2.0176	3.73
  2.019	3.32
   2.02	3.52
   2.02	 3.4
 2.0212	3.79
  2.022	3.33
  2.023	2.76
  2.024	3.53
  2.024	3.51
 2.0248	3.79
  2.026	3.36
  2.027	3.24
 2.0276	3.65
  2.028	3.77
  2.029	3.61
   2.03	3.39
   2.03	3.62
 2.0308	3.58
  2.032	3.56
  2.032	3.94
  2.033	3.61
  2.033	3.42
  2.035	3.56
 2.0355	3.57
  2.036	3.52
  2.036	3.94
  2.037	3.45
 2.0377	3.55
  2.038	3.61
  2.039	3.83
  2.039	3.55
   2.04	3.66
   2.04	3.89
  2.041	3.77
  2.041	3.58
  2.042	3.74
  2.043	3.71
 2.0436	3.72
  2.044	3.79
  2.044	3.85
  2.045	3.85
  2.046	3.78
 2.0469	4.23
  2.047	3.98
  2.047	3.42
  2.047	3.51
  2.048	3.67
  2.048	3.81
   2.05	3.54
 2.0501	4.05
  2.051	3.46
  2.052	3.34
  2.052	3.81
  2.053	 3.4
 2.0533	4.24
  2.054	3.76
  2.055	3.18
  2.056	 3.4
  2.056	3.87
 2.0569	4.18
  2.058	3.53
  2.059	3.69
 2.0597	4.06
   2.06	3.45
   2.06	3.97
  2.061	3.61
  2.062	3.52
  2.062	3.47
 2.0629	4.03
  2.064	3.61
  2.064	3.83
  2.064	4.12
  2.065	3.48
  2.067	3.96
 2.0676	3.77
  2.068	4.32
  2.068	3.44
  2.068	4.23
 2.0689	3.77
   2.07	3.57
  2.072	 4.2
  2.072	3.85
  2.072	4.27
 2.0729	3.67
  2.073	4.43
  2.073	3.77
  2.075	3.85
 2.0753	 3.5
  2.076	4.23
  2.076	4.09
  2.076	4.24
  2.078	3.72
 2.0789	3.69
  2.079	4.62
  2.079	3.82
   2.08	3.86
   2.08	4.18
  2.081	3.78
  2.082	3.77
 2.0826	3.61
  2.083	4.05
  2.084	4.24
  2.084	4.28
  2.084	4.12
 2.0854	3.71
  2.086	3.88
  2.086	4.26
  2.088	4.07
  2.089	3.49
  2.089	3.95
  2.089	3.77
 2.0918	3.33
  2.092	4.07
  2.092	3.94
  2.094	4.07
  2.095	 3.4
 2.0958	3.37
  2.096	3.76
  2.096	3.72
  2.098	 3.4
  2.098	3.65
 2.0997	3.46
    2.1	3.47
 2.1014	3.37
  2.102	3.87
  2.102	 3.3
  2.104	3.27
  2.104	3.41
  2.105	3.89
  2.105	3.88
  2.106	3.87
  2.107	3.84
 2.1078	3.74
  2.108	 3.9
  2.108	3.78
  2.108	3.54
  2.111	3.66
  2.112	3.75
  2.112	3.69
  2.114	3.61
 2.1142	3.29
  2.116	3.71
  2.117	3.51
  2.117	3.68
 2.1174	3.16
   2.12	3.62
   2.12	3.58
   2.12	3.62
 2.1206	3.35
  2.121	3.83
 2.1239	3.54
  2.124	3.85
  2.124	 3.6
  2.125	3.98
  2.127	3.73
  2.128	3.56
  2.129	3.81
  2.131	 3.7
 2.1318	4.18
  2.132	3.46
  2.133	4.36
  2.133	3.47
  2.134	3.63
  2.136	3.44
  2.137	3.35
  2.138	3.35
 2.1395	4.13
   2.14	3.34
   2.14	 3.5
  2.141	3.31
  2.143	3.39
  2.144	3.66
 2.1459	3.86
  2.146	3.92
  2.146	3.57
  2.148	4.12
  2.148	3.88
  2.148	3.94
 2.1495	3.84
  2.151	 4.6
  2.151	3.99
  2.152	3.98
 2.1532	3.54
  2.154	3.99
 2.1559	3.59
  2.156	3.97
  2.156	3.91
 2.1583	3.43
  2.159	 4.2
   2.16	3.86
 2.1613	3.39
  2.162	4.23
  2.164	4.29
  2.164	4.13
  2.164	3.76
 2.1647	3.59
  2.167	4.22
 2.1677	3.59
  2.168	 3.6
   2.17	4.02
 2.1711	3.62
  2.172	3.44
  2.173	4.04
 2.1741	3.75
  2.175	3.88
  2.176	3.81
  2.176	3.45
 2.1775	3.72
  2.178	3.87
  2.179	3.75
   2.18	3.45
 2.1805	3.38
  2.181	3.76
  2.182	 3.6
 2.1829	3.61
  2.183	3.71
  2.184	 3.4
  2.186	3.55
  2.186	3.63
 2.1861	3.55
  2.188	3.55
  2.188	3.47
  2.189	3.68
 2.1908	3.54
  2.191	3.43
  2.192	3.49
  2.192	3.63
 2.1925	3.43
  2.193	3.75
  2.194	3.36
  2.196	4.05
  2.196	3.61
  2.196	3.68
 2.1961	3.39
  2.198	3.84
  2.198	3.56
 2.1989	3.52
  2.199	3.79
    2.2	3.62
  2.201	3.68
  2.202	3.73
  2.204	3.83
  2.204	3.79
  2.204	3.57
 2.2053	3.18
  2.206	3.73
  2.207	3.53
  2.208	3.56
  2.209	3.57
   2.21	3.66
  2.211	3.28
 2.2118	3.61
  2.212	3.51
  2.213	3.34
  2.213	3.43
  2.213	3.41
  2.215	4.12
  2.216	3.49
  2.217	3.38
  2.218	3.67
 2.2182	 3.7
   2.22	3.43
   2.22	3.59
  2.222	3.56
 2.2229	3.72
  2.223	3.49
  2.224	3.62
 2.2246	3.56
  2.226	3.45
  2.227	3.47
  2.228	3.48
 2.2282	3.31
   2.23	3.51
  2.231	3.25
  2.231	3.46
  2.232	3.43
  2.233	3.52
  2.234	3.72
  2.235	3.37
  2.236	3.51
  2.237	4.05
  2.238	3.41
   2.24	3.75
   2.24	3.64
 2.2406	3.15
  2.241	3.52
  2.241	3.92
  2.242	 4.1
 2.2438	3.21
  2.244	4.03
  2.244	3.79
  2.245	 3.8
  2.246	3.96
  2.247	3.58
  2.247	3.97
  2.248	3.97
  2.248	3.84
  2.249	3.64
   2.25	 3.7
 2.2502	3.56
  2.252	3.79
  2.253	3.62
  2.254	3.28
  2.255	3.99
  2.255	3.48
  2.256	3.64
  2.257	3.55
 2.2571	3.89
  2.258	3.17
  2.259	3.16
   2.26	3.42
   2.26	3.35
 2.2603	3.86
  2.262	 3.2
  2.264	 3.3
  2.264	3.31
  2.265	3.23
  2.267	3.23
  2.268	3.12
  2.269	3.35
 2.2695	3.39
   2.27	3.36
  2.272	3.48
  2.272	3.08
 2.2727	3.31
  2.273	3.59
  2.275	3.83
 2.2759	3.24
  2.276	3.45
  2.277	3.77
  2.277	3.81
  2.279	3.81
 2.2791	 3.4
   2.28	3.95
   2.28	3.68
 2.2823	3.51
  2.283	4.08
  2.284	3.81
  2.285	3.92
  2.285	4.06
  2.286	3.84
  2.287	3.64
  2.288	3.81
  2.288	3.74
 2.2887	3.64
  2.289	3.76
  2.291	3.71
  2.292	3.58
  2.293	3.93
  2.293	3.53
 2.2952	3.77
  2.296	 3.4
  2.296	 3.5
  2.296	 3.5
 2.2984	3.46
  2.299	3.28
  2.299	3.24
    2.3	3.54
  2.303	3.41
  2.304	3.39
  2.304	3.64
 2.3048	3.53
  2.307	3.34
  2.307	3.36
  2.308	 3.7
  2.309	 3.4
  2.311	3.55
 2.3112	3.32
  2.312	3.68
  2.312	3.72
  2.314	 3.7
  2.316	3.95
  2.316	3.75
  2.318	3.77
  2.319	3.71
 2.3191	3.14
   2.32	 3.6
   2.32	3.72
 2.3208	3.43
  2.322	3.49
  2.324	3.59
 2.3245	 3.5
  2.325	3.35
  2.327	3.44
 2.3272	3.74
  2.328	3.64
  2.328	3.59
   2.33	 3.4
 2.3305	3.82
  2.331	3.46
  2.332	3.33
  2.332	3.64
  2.333	3.52
 2.3337	 3.8
  2.336	 3.6
  2.336	3.67
  2.336	 3.9
  2.336	3.36
  2.336	3.49
  2.339	3.79
  2.339	3.51
   2.34	3.39
 2.3401	3.71
  2.341	3.65
  2.342	3.55
 2.3433	3.52
  2.344	3.35
  2.345	3.26
  2.346	2.87
 2.3465	3.22
  2.348	3.09
  2.348	3.34
 2.3512	3.27
  2.352	3.13
  2.352	3.39
 2.3529	3.43
  2.353	3.46
  2.355	3.38
  2.356	3.51
 2.3565	3.37
  2.358	 3.6
  2.359	3.74
 2.3593	3.41
   2.36	3.98
   2.36	3.64
  2.361	3.83
  2.362	4.07
 2.3625	3.65
  2.364	3.95
  2.364	3.72
  2.365	3.85
  2.368	3.76
  2.368	3.79
 2.3689	3.77
  2.369	3.76
  2.371	3.77
  2.372	3.92
  2.373	 3.8
  2.374	3.59
  2.375	3.51
  2.376	3.96
  2.377	3.49
  2.377	3.67
  2.379	 3.5
   2.38	3.86
  2.381	3.06
  2.381	3.52
  2.384	 3.3
  2.384	 3.6
 2.3846	3.55
 2.3848	3.69
  2.386	3.35
 2.3867	3.28
  2.388	3.11
  2.388	 3.5
  2.391	3.01
  2.391	3.08
 2.3912	3.35
  2.392	3.45
 2.3929	3.34
  2.393	 3.1
  2.395	3.14
  2.396	3.47
 2.3963	 3.4
  2.398	3.33
 2.3993	3.22
    2.4	3.46
    2.4	3.55
 2.4027	3.38
  2.403	 3.9
  2.403	3.65
  2.404	3.59
  2.405	3.62
 2.4051	3.53
  2.407	3.75
  2.408	3.53
 2.4083	3.75
  2.409	3.54
  2.411	3.98
  2.412	3.86
  2.412	3.54
  2.413	4.19
  2.413	3.73
  2.414	3.24
 2.4147	4.38
  2.415	3.65
  2.416	 3.6
  2.417	3.03
  2.417	3.68
 2.4184	4.16
  2.419	3.62
   2.42	3.55
  2.421	3.44
  2.421	 3.4
 2.4211	 4.2
  2.422	3.26
  2.423	3.29
  2.424	3.53
  2.425	2.99
  2.427	3.51
 2.4275	3.93
  2.428	3.11
  2.428	3.63
   2.43	3.47
 2.4308	3.74
  2.431	3.48
  2.432	3.72
  2.434	3.68
  2.434	 3.9
  2.435	3.42
  2.436	3.89
 2.4372	3.71
  2.438	3.38
   2.44	3.82
   2.44	3.55
   2.44	3.94
  2.442	3.93
  2.443	3.72
  2.444	3.98
  2.445	4.08
 2.4451	3.26
  2.446	4.52
 2.4468	3.23
  2.447	4.21
  2.448	4.18
  2.448	3.99
  2.449	3.47
   2.45	4.02
  2.451	4.29
  2.452	 4.1
  2.452	 3.8
  2.454	4.01
  2.455	3.42
  2.455	3.84
  2.456	3.53
 2.4564	3.48
  2.459	3.85
 2.4596	3.99
   2.46	3.47
   2.46	3.85
   2.46	3.41
  2.462	3.82
 2.4628	4.13
  2.463	3.15
  2.463	3.92
  2.464	3.39
  2.465	3.67
  2.466	4.15
  2.466	   3
  2.467	3.55
  2.468	3.41
  2.469	3.07
  2.469	3.34
   2.47	3.29
  2.472	3.38
  2.472	3.54
 2.4725	4.03
  2.473	3.49
  2.474	3.21
  2.476	3.52
  2.476	3.32
  2.476	3.76
  2.477	3.62
  2.477	3.79
  2.477	3.67
 2.4772	3.71
 2.4789	3.71
   2.48	3.67
   2.48	 3.9
  2.482	3.97
  2.484	4.07
  2.484	 3.9
 2.4849	3.45
  2.486	4.16
  2.488	4.16
  2.488	3.86
 2.4885	3.28
   2.49	4.39
   2.49	4.03
 2.4917	3.91
  2.492	3.51
  2.493	3.96
  2.494	3.65
  2.496	3.41
  2.496	3.86
  2.496	3.46
 2.4981	4.42
  2.499	 3.6
  2.499	3.92
    2.5	3.37
 2.5013	4.31
  2.502	 3.5
  2.504	3.32
  2.504	3.45
 2.5041	 4.3
  2.506	3.06
  2.508	3.41
  2.508	3.71
 2.5092	4.08
  2.511	4.16
  2.511	3.59
  2.511	3.56
  2.512	3.77
  2.514	3.69
 2.5146	3.79
  2.516	3.66
  2.516	3.74
 2.5169	3.56
  2.517	3.79
  2.517	3.88
   2.52	3.92
 2.5206	3.35
  2.522	4.39
  2.522	4.03
  2.523	 4.1
  2.523	4.18
  2.524	4.12
  2.524	   4
  2.525	4.21
  2.525	4.09
  2.526	4.09
  2.528	4.34
  2.528	4.09
  2.528	3.91
  2.529	4.06
   2.53	4.05
 2.5302	3.38
  2.531	3.85
  2.532	3.92
  2.532	 4.5
  2.532	3.97
  2.532	3.87
  2.533	3.83
  2.534	3.97
  2.536	3.71
  2.536	3.83
  2.537	3.56
  2.538	3.53
  2.539	3.49
   2.54	3.41
   2.54	 3.7
 2.5413	3.51
  2.542	3.16
  2.543	3.61
  2.544	3.36
  2.544	3.18
  2.544	3.51
  2.546	3.13
 2.5467	3.37
  2.547	3.47
  2.548	3.35
  2.549	3.14
  2.549	3.16
  2.549	3.66
 2.5495	3.28
  2.552	 3.6
  2.552	3.26
 2.5527	3.35
  2.555	3.46
  2.555	3.57
  2.556	3.24
  2.557	 3.8
  2.557	3.44
  2.559	3.32
  2.559	3.47
 2.5591	3.23
   2.56	3.24
  2.562	3.67
 2.5623	3.33
  2.563	3.45
  2.564	3.31
 2.5655	3.31
  2.566	3.46
  2.568	3.71
  2.568	3.32
 2.5687	3.59
  2.569	3.44
  2.571	3.25
  2.572	3.32
  2.572	3.28
  2.573	3.52
 2.5734	3.61
  2.574	3.39
 2.5751	4.02
  2.576	3.46
  2.577	3.08
  2.577	3.18
 2.5788	 3.8
   2.58	3.22
   2.58	3.22
   2.58	3.58
 2.5816	3.77
  2.583	3.27
  2.584	3.48
  2.585	3.22
 2.5855	3.72
  2.586	 3.2
  2.588	3.41
  2.589	3.25
 2.5893	3.65
  2.592	3.33
  2.592	3.44
 2.5932	3.41
  2.594	3.28
  2.596	3.51
  2.596	3.53
  2.598	3.71
 2.5985	3.26
    2.6	3.79
    2.6	3.67
 2.6021	3.05
  2.603	3.73
  2.604	3.89
  2.605	4.04
 2.6062	3.34
  2.607	   4
  2.608	3.85
  2.609	3.85
 2.6098	3.38
  2.611	3.91
  2.612	3.68
 2.6139	3.65
  2.614	 3.8
  2.616	3.91
  2.616	3.59
 2.6175	3.76
  2.618	3.69
   2.62	 3.7
   2.62	3.57
 2.6216	3.96
  2.622	3.55
  2.624	3.45
  2.624	3.54
  2.625	3.18
  2.627	3.46
  2.627	3.37
  2.628	 3.5
  2.629	2.76
  2.629	3.38
 2.6293	3.47
  2.631	3.41
  2.632	2.78
  2.632	3.44
 2.6329	3.36
  2.633	3.42
  2.634	2.93
  2.635	3.28
  2.636	3.45
  2.637	3.12
  2.637	2.73
  2.637	3.31
   2.64	 3.3
   2.64	3.35
   2.64	3.58
  2.642	3.56
  2.644	3.29
  2.644	3.52
  2.644	 3.7
  2.647	3.65
  2.647	4.05
  2.648	3.13
  2.648	3.71
  2.649	3.54
   2.65	3.67
  2.651	4.25
  2.651	3.77
 2.6518	3.37
  2.652	3.66
  2.654	3.76
  2.655	4.09
  2.656	 3.8
  2.656	3.79
  2.656	 3.6
  2.658	 3.6
 2.6595	3.75
   2.66	3.52
   2.66	3.39
  2.662	2.97
  2.663	3.47
 2.6633	3.96
  2.664	3.15
  2.664	3.26
  2.665	3.23
  2.667	3.05
  2.668	3.29
  2.669	3.21
   2.67	3.17
  2.671	3.43
  2.672	3.19
  2.672	3.25
  2.674	3.31
  2.674	3.27
  2.676	3.21
 2.6767	3.62
  2.677	3.14
  2.678	3.37
  2.679	3.36
   2.68	3.24
  2.681	3.35
  2.681	3.29
 2.6831	3.56
  2.684	3.39
  2.684	3.51
  2.684	3.55
  2.684	3.35
  2.686	3.43
 2.6864	3.95
  2.687	3.57
  2.688	3.43
  2.689	3.76
 2.6902	3.97
  2.691	3.79
  2.691	 3.9
  2.692	3.49
  2.694	3.84
  2.695	4.05
  2.696	3.76
  2.696	3.58
 2.6979	 4.1
  2.699	3.61
    2.7	3.86
    2.7	3.61
  2.701	3.46
  2.704	3.51
  2.704	3.62
  2.705	3.72
 2.7056	4.13
  2.706	3.56
  2.707	3.41
  2.708	3.55
  2.708	 3.6
 2.7095	3.46
   2.71	3.67
   2.71	 3.8
  2.712	3.77
  2.712	3.62
  2.713	4.16
  2.714	3.71
  2.715	   4
  2.716	3.83
  2.716	3.68
  2.717	3.84
 2.7171	3.42
  2.718	3.88
  2.719	3.83
   2.72	3.72
  2.721	3.88
 2.7215	3.39
  2.722	4.16
  2.723	3.61
  2.724	3.73
 2.7248	3.27
  2.725	3.65
  2.726	 3.5
  2.728	3.47
  2.728	3.73
 2.7287	3.23
   2.73	3.97
 2.7317	3.25
  2.732	3.32
  2.732	3.77
  2.733	3.49
  2.734	3.93
  2.735	3.66
  2.736	3.76
  2.737	 3.6
  2.738	 3.7
  2.739	3.78
   2.74	 3.6
   2.74	3.68
 2.7402	3.16
  2.741	3.58
  2.742	3.46
  2.744	3.32
  2.744	3.51
  2.744	3.87
  2.744	3.39
  2.745	3.48
  2.745	3.65
  2.746	3.71
  2.747	3.53
 2.7479	   4
  2.748	 2.9
  2.748	3.19
  2.749	2.88
   2.75	3.02
  2.751	2.98
  2.751	2.86
  2.752	3.25
  2.753	3.26
  2.753	3.04
  2.755	3.33
  2.755	   3
  2.756	3.27
  2.757	3.25
  2.758	3.02
  2.759	3.14
 2.7599	3.21
   2.76	3.32
   2.76	3.25
  2.761	3.04
  2.762	3.09
 2.7632	3.05
  2.764	3.52
  2.764	3.19
  2.765	3.21
  2.766	3.22
 2.7671	3.33
  2.768	3.16
  2.768	3.38
  2.768	3.11
   2.77	3.33
  2.772	3.41
  2.772	3.15
  2.773	3.44
  2.774	3.41
 2.7748	3.41
  2.776	3.57
  2.776	3.14
 2.7786	3.59
  2.779	3.32
   2.78	3.37
   2.78	3.13
 2.7825	3.71
  2.783	3.32
  2.784	3.17
  2.785	3.19
  2.786	3.26
 2.7863	3.76
  2.787	3.11
  2.787	3.16
  2.788	3.23
  2.789	3.15
 2.7919	3.58
  2.792	3.22
  2.792	3.28
  2.794	3.61
  2.794	 3.2
  2.795	3.36
  2.796	3.33
  2.798	3.22
 2.7983	3.41
    2.8	3.42
 2.8017	 3.3
  2.802	3.33
  2.804	3.39
  2.807	3.36
  2.808	3.38
 2.8093	3.12
   2.81	3.65
  2.812	3.63
  2.812	3.69
  2.813	3.33
 2.8132	3.12
  2.815	3.74
  2.816	4.04
  2.816	3.79
  2.817	3.91
  2.817	3.75
  2.819	3.78
   2.82	3.78
   2.82	3.78
  2.822	3.77
  2.823	3.78
  2.824	3.49
  2.824	3.78
 2.8242	3.43
  2.826	3.59
  2.826	3.41
  2.828	3.55
  2.829	3.44
 2.8304	3.53
  2.831	3.64
  2.832	3.29
  2.832	 3.4
 2.8324	3.17
  2.836	3.28
  2.836	3.25
 2.8368	3.32
  2.838	3.33
   2.84	3.36
   2.84	 3.3
   2.84	3.26
 2.8401	3.05
  2.841	3.42
  2.843	3.42
 2.8439	3.18
  2.844	 3.5
  2.844	3.34
  2.845	3.51
 2.8478	3.07
  2.848	3.27
  2.848	3.62
  2.848	3.34
  2.849	3.55
   2.85	3.44
 2.8516	3.38
  2.852	3.48
  2.852	3.43
  2.853	3.51
  2.853	3.59
  2.856	3.59
  2.856	3.57
  2.857	3.45
  2.858	3.62
  2.859	3.67
 2.8593	3.25
   2.86	3.55
 2.8606	3.23
  2.861	3.07
  2.862	3.31
  2.864	3.36
  2.864	3.35
  2.864	3.47
  2.866	3.28
  2.868	3.25
  2.868	3.43
  2.869	3.28
  2.871	 3.3
  2.872	3.39
  2.873	3.11
  2.875	3.36
  2.875	 3.4
  2.876	 3.2
  2.876	3.32
 2.8761	2.97
  2.878	3.11
  2.878	3.23
 2.8789	3.18
  2.879	3.11
   2.88	3.29
   2.88	3.26
  2.881	 3.3
  2.882	3.25
 2.8827	2.81
  2.883	3.49
  2.884	3.31
  2.885	3.62
  2.887	 3.6
  2.888	3.77
  2.888	3.46
 2.8884	3.01
  2.889	3.72
 2.8904	3.11
  2.891	3.69
  2.892	3.69
  2.892	3.47
  2.892	3.61
  2.894	 3.5
 2.8948	3.14
  2.895	3.66
  2.896	3.47
  2.896	3.64
  2.897	3.43
  2.898	3.26
  2.898	3.34
 2.8981	3.38
    2.9	3.37
    2.9	3.51
  2.901	3.31
  2.902	3.58
  2.903	3.29
  2.904	3.45
  2.905	3.27
 2.9058	3.35
  2.906	3.72
  2.908	3.35
  2.909	3.22
 2.9096	 3.4
  2.911	3.52
  2.912	3.29
  2.913	 3.1
  2.913	 3.4
 2.9135	2.83
  2.916	3.45
  2.916	3.36
  2.916	3.38
 2.9173	3.53
   2.92	3.18
   2.92	 3.3
   2.92	3.48
  2.924	3.24
  2.924	 3.5
  2.925	 3.9
  2.926	3.36
 2.9268	2.99
  2.928	3.48
  2.928	3.54
 2.9283	3.03
  2.929	3.52
   2.93	3.79
   2.93	3.51
  2.931	3.59
  2.931	3.46
  2.932	 3.6
  2.933	3.91
  2.933	3.56
 2.9332	2.85
  2.934	 3.8
  2.934	 3.6
  2.935	3.69
  2.936	3.62
  2.936	3.61
 2.9365	 2.8
  2.938	3.56
  2.939	 3.5
   2.94	3.66
   2.94	3.25
   2.94	3.45
 2.9404	2.81
  2.941	 3.3
  2.942	3.18
  2.944	3.15
  2.944	3.29
 2.9442	2.85
  2.945	 2.9
  2.946	3.21
  2.948	   3
  2.948	2.84
  2.948	3.18
  2.949	3.01
  2.951	3.05
 2.9519	2.93
  2.952	 3.1
  2.954	3.07
  2.955	2.96
  2.955	2.99
 2.9557	3.03
  2.956	3.14
  2.957	3.12
  2.957	3.33
  2.958	3.24
  2.959	3.04
  2.959	3.26
  2.959	3.43
 2.9591	3.32
   2.96	3.26
  2.961	3.12
  2.963	3.45
  2.963	3.17
  2.964	3.25
  2.964	3.34
  2.965	3.13
 2.9652	3.39
  2.966	2.96
  2.967	3.14
  2.967	3.33
 2.9673	3.31
  2.968	3.49
  2.968	3.42
  2.971	3.17
  2.971	3.26
 2.9716	3.26
  2.972	3.53
  2.973	3.26
 2.9749	3.24
  2.975	2.99
  2.975	3.44
  2.976	3.59
  2.977	3.51
 2.9788	3.06
   2.98	3.24
   2.98	3.63
  2.981	3.31
  2.982	 3.3
 2.9826	2.98
  2.984	3.01
  2.984	3.13
  2.984	3.61
 2.9865	3.24
  2.987	2.75
  2.988	3.53
  2.989	3.12
   2.99	3.08
 2.9908	3.17
  2.991	2.86
  2.992	3.38
  2.994	3.17
  2.994	2.89
 2.9942	3.22
  2.996	2.99
  2.996	 3.3
  2.998	3.08
  2.998	3.04
      3	3.12
      3	3.34
  3.001	3.71
  3.003	3.28
 3.0036	3.25
  3.004	 3.4
  3.005	3.58
 3.0057	3.23
  3.006	3.33
  3.008	3.42
  3.008	3.43
  3.009	3.41
   3.01	3.39
  3.011	3.57
  3.012	3.37
  3.012	3.41
 3.0128	3.24
  3.014	3.71
  3.016	3.38
  3.016	3.39
 3.0172	 3.3
  3.018	3.31
  3.018	3.61
   3.02	3.36
   3.02	3.44
  3.021	3.19
  3.021	3.31
  3.023	3.34
  3.024	3.47
 3.0249	2.85
  3.025	 3.7
  3.025	3.36
  3.027	3.42
  3.028	3.42
 3.0287	3.08
  3.029	3.38
   3.03	3.45
  3.032	3.23
  3.032	3.26
 3.0326	2.98
  3.034	 3.3
  3.035	3.22
  3.036	2.87
  3.036	3.16
 3.0364	3.42
  3.038	3.03
  3.038	2.99
  3.039	3.47
   3.04	3.12
  3.041	3.02
  3.043	3.15
  3.043	   3
 3.0437	3.22
  3.044	3.16
  3.046	3.04
 3.0474	3.23
  3.048	 3.3
  3.048	3.37
  3.048	3.19
  3.048	3.29
  3.051	3.14
  3.052	3.06
  3.052	 3.4
  3.053	3.39
  3.054	3.41
  3.055	3.17
 3.0553	 2.9
  3.056	3.37
  3.057	2.97
  3.058	 3.5
  3.059	3.29
   3.06	3.26
   3.06	3.18
 3.0613	3.09
  3.063	3.04
  3.063	2.97
  3.064	3.04
  3.065	3.03
  3.066	3.23
  3.067	2.97
  3.068	2.88
  3.068	3.09
 3.0683	 2.7
   3.07	3.17
   3.07	2.94
  3.072	3.06
  3.072	3.16
  3.073	2.95
  3.074	3.01
 3.0743	2.64
  3.075	2.86
  3.076	3.16
  3.077	3.04
  3.078	3.07
  3.079	3.01
   3.08	3.02
   3.08	3.11
  3.082	3.01
 3.0822	2.97
  3.083	2.93
  3.084	3.29
  3.084	3.06
  3.086	3.19
  3.086	3.18
  3.088	3.04
  3.089	3.22
  3.092	 3.3
  3.092	 3.1
  3.094	2.89
  3.095	3.18
  3.096	3.19
 3.0961	   3
  3.098	3.34
    3.1	3.19
    3.1	3.24
  3.101	 3.1
 3.1021	2.83
  3.103	3.09
  3.104	2.98
  3.104	3.19
  3.105	3.26
  3.107	3.23
  3.108	3.12
  3.109	3.23
   3.11	3.07
  3.112	 3.1
  3.113	3.39
  3.116	2.97
  3.116	3.09
  3.116	3.08
  3.117	2.99
  3.119	3.51
  3.119	3.38
   3.12	3.13
  3.122	3.22
  3.123	3.44
  3.124	3.22
  3.125	 3.6
  3.128	3.21
  3.128	3.27
  3.129	3.36
 3.1299	3.01
  3.131	3.22
  3.132	3.48
  3.132	3.33
  3.133	3.37
  3.134	3.45
  3.134	3.51
  3.136	3.39
  3.136	 3.5
  3.136	3.39
 3.1387	2.95
  3.139	3.59
   3.14	3.45
  3.141	3.79
  3.144	3.71
  3.144	3.49
 3.1448	3.07
  3.146	 3.5
  3.146	3.71
  3.148	 3.4
  3.148	3.48
  3.151	2.77
  3.151	3.38
  3.152	3.33
 3.1526	2.87
  3.153	3.46
  3.154	3.06
  3.156	3.14
  3.156	3.03
  3.158	3.19
 3.1596	3.02
   3.16	3.13
   3.16	2.86
  3.162	3.06
  3.164	3.09
  3.164	2.91
  3.165	 3.2
 3.1656	3.07
  3.166	3.05
  3.168	3.21
  3.168	2.93
  3.171	3.19
  3.172	2.98
  3.173	3.15
  3.174	3.36
  3.176	3.11
  3.177	3.33
  3.178	3.12
   3.18	3.31
   3.18	 3.2
  3.182	3.02
  3.183	2.97
  3.183	3.16
  3.184	3.23
 3.1846	3.14
  3.186	3.45
 3.1862	2.83
  3.188	3.15
  3.188	 3.2
 3.1885	2.71
  3.189	3.36
 3.1911	2.77
  3.192	3.31
  3.192	3.14
 3.1924	2.82
  3.194	2.85
  3.195	3.08
  3.196	3.12
  3.196	3.11
 3.1971	2.89
  3.198	3.06
 3.1987	2.88
    3.2	3.13
 3.2003	2.93
 3.2018	3.07
  3.202	3.05
  3.203	3.04
  3.204	3.15
 3.2041	2.66
 3.2048	2.69
  3.206	2.83
 3.2067	2.77
 3.2079	2.62
  3.208	3.13
  3.209	3.22
 3.2097	2.75
  3.211	2.57
  3.212	3.12
 3.2128	2.67
  3.213	2.98
 3.2144	2.71
  3.216	 3.1
  3.216	3.14
 3.2175	2.88
 3.2198	2.66
   3.22	3.08
   3.22	3.18
 3.2225	2.83
  3.223	3.04
  3.224	3.32
  3.224	3.22
  3.226	3.35
 3.2264	2.71
  3.228	3.25
 3.2299	2.75
   3.23	3.09
  3.232	3.27
  3.234	3.27
 3.2341	2.72
  3.235	2.98
  3.236	3.22
  3.238	3.26
  3.238	 3.1
 3.2382	2.87
   3.24	3.16
  3.241	3.13
  3.244	3.16
  3.244	3.14
  3.245	3.17
  3.245	3.23
 3.2465	2.74
  3.248	3.33
  3.248	3.09
  3.249	3.05
   3.25	3.12
  3.251	2.65
  3.252	 3.1
  3.252	   3
  3.254	   3
  3.254	3.07
  3.254	3.09
  3.255	3.21
  3.256	2.96
  3.257	3.19
  3.259	3.05
   3.26	   3
 3.2609	2.86
  3.263	3.16
 3.2631	2.72
  3.264	 3.1
  3.265	3.13
 3.2678	2.74
  3.268	 3.3
  3.268	3.16
  3.268	3.13
 3.2714	3.11
  3.272	 3.2
  3.272	3.11
  3.273	3.17
 3.2756	3.16
  3.276	2.96
  3.276	3.18
  3.277	3.32
   3.28	3.14
   3.28	3.23
 3.2803	3.54
  3.281	3.19
 3.2838	3.41
  3.284	 2.6
  3.284	2.96
  3.284	3.28
  3.287	3.07
  3.288	3.34
  3.289	2.53
  3.289	2.56
   3.29	2.97
   3.29	 3.1
  3.291	3.21
  3.291	3.24
  3.292	3.55
  3.292	3.59
  3.292	3.49
 3.2921	3.41
  3.293	   3
  3.296	3.07
  3.296	3.65
  3.299	3.54
  3.299	3.15
    3.3	3.28
    3.3	3.66
  3.301	3.42
  3.301	3.59
  3.301	3.15
 3.3024	3.39
  3.303	3.34
  3.304	3.26
  3.304	3.61
  3.305	3.84
  3.308	3.33
  3.308	3.77
  3.308	3.47
  3.309	3.67
 3.3093	3.06
  3.311	3.33
  3.311	3.52
  3.311	3.57
  3.312	3.41
  3.313	3.63
  3.314	3.21
  3.315	3.44
  3.316	3.39
  3.316	3.84
  3.316	3.42
  3.317	2.88
  3.318	3.54
  3.319	3.65
   3.32	3.48
   3.32	3.42
  3.321	3.27
  3.322	3.47
  3.323	3.58
  3.324	3.18
  3.324	3.34
  3.324	3.34
  3.325	3.21
 3.3253	2.92
  3.327	3.27
  3.327	3.38
  3.328	3.18
  3.329	3.29
  3.329	3.41
   3.33	 3.4
  3.331	3.36
  3.332	3.12
  3.333	3.37
  3.333	 3.2
  3.335	3.48
  3.336	 3.2
  3.337	3.23
  3.338	3.14
  3.339	3.85
   3.34	3.22
  3.341	3.08
  3.341	3.66
  3.343	3.01
  3.343	3.85
  3.344	3.21
  3.345	3.55
  3.347	3.11
  3.347	3.62
  3.348	3.29
   3.35	3.09
   3.35	3.62
  3.352	3.39
  3.352	3.64
  3.352	3.36
  3.354	3.45
  3.356	3.56
  3.356	3.55
  3.356	3.31
  3.358	3.44
   3.36	3.38
   3.36	3.28
  3.362	3.39
  3.364	3.64
  3.364	3.33
  3.365	3.39
  3.366	3.07
  3.368	3.28
  3.368	3.35
   3.37	3.16
  3.372	3.15
  3.372	3.31
  3.375	3.05
  3.375	3.17
  3.376	3.25
  3.378	3.19
   3.38	3.28
  3.381	3.14
  3.383	3.29
  3.384	3.23
  3.384	3.41
  3.385	3.19
  3.387	3.14
  3.388	3.42
   3.39	3.17
  3.392	3.42
  3.393	3.53
  3.396	3.18
  3.396	3.35
  3.398	2.61
  3.399	3.29
    3.4	3.18
  3.402	3.17
  3.404	3.27
  3.404	3.04
  3.406	3.15
  3.407	3.23
  3.408	2.85
  3.408	3.05
   3.41	2.91
  3.411	3.13
  3.412	3.34
  3.412	3.16
  3.414	3.38
  3.416	 3.2
  3.417	2.74
  3.417	 3.2
  3.419	3.24
   3.42	2.93
   3.42	3.14
  3.421	3.17
  3.423	3.18
  3.424	3.04
  3.424	 3.1
  3.426	3.23
  3.427	2.86
  3.428	3.18
  3.428	3.06
  3.429	3.24
  3.431	3.37
  3.432	 3.1
  3.433	3.06
  3.433	3.25
  3.434	3.32
  3.436	3.43
  3.436	3.17
  3.438	3.35
  3.439	3.34
   3.44	2.93
   3.44	3.09
  3.441	3.23
  3.443	3.29
  3.444	3.16
  3.444	2.96
  3.445	3.31
  3.446	3.15
  3.447	2.89
  3.448	2.88
  3.449	3.07
  3.451	2.99
  3.452	2.91
  3.452	2.86
  3.453	2.83
  3.454	 2.9
  3.456	2.87
  3.456	2.84
  3.457	2.95
  3.459	2.51
  3.459	3.29
   3.46	2.85
  3.461	3.11
  3.462	3.04
  3.464	3.11
  3.464	2.93
  3.465	3.09
  3.467	2.88
  3.467	2.93
  3.468	3.07
   3.47	2.86
  3.472	3.15
  3.473	2.77
  3.473	3.06
  3.474	3.09
  3.476	2.96
  3.476	3.14
  3.478	2.65
  3.479	3.09
   3.48	3.03
  3.482	2.83
  3.482	3.18
  3.483	3.07
  3.484	2.92
  3.485	3.07
  3.488	2.96
  3.488	2.91
   3.49	3.18
  3.491	2.97
  3.492	2.96
  3.493	2.66
  3.494	3.03
  3.495	2.92
  3.496	3.02
  3.497	2.71
    3.5	3.08
    3.5	3.04
  3.501	2.88
  3.502	2.97
  3.504	3.06
  3.506	2.94
  3.508	 3.1
   3.51	2.87
  3.512	3.12
  3.514	2.88
  3.516	3.09
  3.517	 3.2
  3.517	2.98
   3.52	3.06
   3.52	 3.1
  3.522	   3
  3.524	3.11
  3.525	2.92
  3.526	2.93
  3.527	2.92
  3.527	2.93
  3.527	3.01
  3.528	2.94
  3.528	2.95
  3.528	3.08
   3.53	2.96
  3.531	2.76
  3.532	3.09
  3.533	2.86
  3.534	2.92
  3.535	2.99
  3.535	2.79
  3.536	3.09
  3.537	2.97
  3.539	2.85
   3.54	   3
   3.54	2.88
   3.54	3.04
  3.542	 2.9
  3.544	2.99
  3.544	3.01
  3.545	3.11
  3.546	3.08
  3.548	 3.4
  3.548	3.02
  3.549	3.19
  3.551	3.16
  3.551	3.05
  3.552	3.21
  3.552	3.08
  3.553	3.11
  3.554	3.14
  3.554	2.79
  3.556	3.22
  3.556	2.92
  3.556	3.13
  3.558	3.04
   3.56	3.13
   3.56	3.16
  3.562	3.07
  3.563	3.03
  3.564	3.18
  3.565	   3
  3.566	3.04
  3.567	3.09
  3.567	3.02
  3.568	3.05
  3.568	3.16
  3.569	3.09
   3.57	3.03
  3.572	   3
  3.572	3.12
  3.574	2.89
  3.576	 2.8
  3.576	3.05
  3.577	3.02
  3.578	3.25
   3.58	2.99
   3.58	2.95
  3.583	3.29
  3.584	3.19
  3.584	 2.9
  3.587	3.33
  3.587	3.13
  3.588	3.02
   3.59	3.25
  3.592	3.23
  3.594	3.01
  3.596	3.28
  3.596	3.31
  3.597	2.96
    3.6	3.26
  3.601	2.92
  3.604	3.17
  3.604	2.99
  3.604	3.22
  3.608	2.95
  3.608	3.12
  3.608	3.22
  3.609	2.93
   3.61	3.11
  3.611	2.95
  3.612	2.84
  3.612	 3.2
  3.615	2.67
  3.616	2.96
  3.616	3.19
  3.618	3.19
  3.618	2.85
   3.62	3.23
  3.621	2.84
  3.621	2.94
  3.623	3.02
  3.624	3.19
  3.624	3.33
  3.626	3.44
  3.627	3.49
  3.628	3.22
  3.628	3.44
  3.631	3.39
  3.631	3.21
  3.632	3.51
  3.634	3.43
  3.635	3.76
  3.636	3.69
  3.636	 3.6
  3.637	3.13
   3.64	3.21
   3.64	2.86
   3.64	3.59
  3.643	3.29
  3.643	 2.9
  3.644	3.45
  3.647	2.87
  3.648	3.32
   3.65	2.88
  3.652	3.24
  3.653	2.77
  3.654	2.67
  3.656	3.16
  3.658	3.04
  3.658	2.87
   3.66	3.16
  3.661	3.06
  3.663	3.01
  3.664	3.25
  3.667	3.27
  3.668	3.13
  3.668	3.41
  3.669	3.33
  3.672	 3.6
  3.674	3.62
  3.674	3.22
  3.676	3.41
  3.676	 3.6
  3.679	3.29
   3.68	3.33
   3.68	3.46
  3.682	3.05
  3.683	3.23
  3.684	3.34
  3.686	3.16
  3.687	3.04
  3.688	 3.2
   3.69	3.12
  3.692	2.98
  3.692	3.01
  3.693	 2.9
  3.695	2.76
  3.696	3.03
  3.697	2.92
  3.698	2.95
    3.7	2.64
    3.7	3.03
  3.704	3.03
  3.704	3.03
  3.705	2.93
  3.708	3.11
  3.708	2.99
  3.708	3.05
  3.711	2.82
  3.712	3.09
  3.713	2.98
  3.716	3.39
  3.716	3.07
  3.716	3.21
  3.719	3.17
  3.719	3.14
   3.72	3.33
  3.722	3.17
  3.724	3.29
  3.725	3.03
  3.726	2.91
  3.727	2.79
  3.728	3.07
  3.729	2.97
  3.731	3.01
  3.732	2.76
  3.733	2.91
  3.736	2.63
  3.736	2.81
  3.737	2.72
   3.74	3.33
   3.74	2.95
  3.741	2.86
  3.744	3.13
  3.744	   3
  3.745	2.85
  3.748	3.06
  3.749	2.86
  3.752	3.17
  3.753	2.85
  3.756	3.21
  3.756	2.93
  3.756	3.28
  3.759	3.08
   3.76	3.53
   3.76	3.31
  3.762	2.89
  3.764	3.35
  3.764	3.34
  3.765	2.88
  3.768	2.79
  3.768	3.39
   3.77	2.69
  3.772	3.13
  3.772	3.42
  3.774	2.76
  3.776	3.27
  3.778	 2.8
  3.779	2.66
   3.78	3.13
  3.782	2.48
  3.783	2.85
  3.784	3.06
  3.786	3.06
  3.788	   3
  3.788	3.01
   3.79	3.16
  3.791	3.22
  3.792	3.03
  3.793	3.07
  3.794	 3.2
  3.796	3.12
  3.799	2.89
    3.8	3.08
  3.803	3.23
  3.803	2.88
  3.804	3.04
  3.808	3.02
  3.808	3.05
  3.809	3.11
  3.811	2.99
  3.812	 3.1
  3.813	3.14
  3.816	3.06
  3.816	3.16
  3.818	2.88
   3.82	3.02
   3.82	3.17
  3.822	3.07
  3.824	3.11
  3.824	3.12
  3.827	2.92
  3.828	2.97
  3.828	3.06
  3.829	3.16
  3.832	 3.2
  3.833	2.89
  3.835	3.04
  3.836	3.28
  3.837	2.93
   3.84	3.09
   3.84	3.18
  3.841	3.18
  3.843	3.03
  3.844	   3
  3.846	3.04
  3.846	3.28
  3.847	3.16
  3.848	2.86
   3.85	2.81
  3.852	3.28
  3.852	3.35
  3.852	2.88
  3.854	2.68
  3.855	3.27
  3.856	3.15
  3.856	2.93
  3.858	2.86
  3.858	2.63
   3.86	2.98
  3.861	2.62
  3.862	2.85
  3.864	2.96
  3.864	2.98
  3.864	2.98
  3.868	 2.8
  3.868	 2.7
  3.868	2.93
  3.872	2.78
  3.872	2.75
  3.872	2.95
  3.876	2.99
  3.876	3.13
  3.878	3.22
  3.879	3.02
   3.88	3.27
  3.883	3.13
  3.884	3.04
  3.884	3.36
  3.885	3.05
  3.887	3.14
  3.888	3.11
  3.888	 3.2
  3.891	2.83
  3.892	3.13
  3.894	2.86
  3.896	 3.1
  3.897	3.02
    3.9	2.72
    3.9	3.03
  3.902	2.97
  3.904	3.01
  3.905	3.05
  3.906	2.96
  3.908	2.95
  3.908	3.04
  3.912	2.91
  3.912	3.07
  3.915	2.97
  3.916	3.04
  3.918	2.86
  3.918	2.86
   3.92	2.85
   3.92	3.06
  3.921	2.96
  3.921	2.85
  3.923	2.91
  3.923	3.15
  3.924	3.36
  3.925	2.97
  3.927	3.21
  3.927	3.06
  3.928	3.39
  3.929	3.19
  3.929	   3
  3.931	2.89
  3.932	3.24
  3.933	3.16
  3.934	2.99
  3.935	2.86
  3.936	 3.1
  3.938	2.94
  3.938	2.74
   3.94	3.01
  3.941	2.73
  3.942	2.73
  3.943	2.58
  3.944	2.93
  3.944	3.11
  3.944	2.98
  3.946	3.15
  3.947	3.03
  3.948	2.96
  3.949	 3.1
   3.95	3.17
  3.952	3.03
  3.952	3.02
  3.953	2.95
  3.954	2.78
  3.956	2.89
  3.956	3.03
  3.956	2.88
  3.956	3.12
  3.958	3.01
  3.959	3.05
   3.96	3.15
  3.961	3.02
  3.962	3.15
  3.964	3.02
  3.964	3.14
  3.966	3.37
  3.966	3.04
  3.967	3.22
  3.968	3.16
   3.97	3.29
   3.97	3.11
  3.972	3.18
  3.973	3.02
  3.976	3.15
  3.977	3.27
  3.977	3.24
   3.98	3.07
   3.98	3.14
  3.982	3.38
  3.983	3.32
  3.984	3.23
  3.984	3.15
  3.987	3.16
  3.988	3.32
  3.988	3.19
   3.99	3.19
  3.992	3.39
  3.992	3.24
  3.994	3.66
  3.996	3.55
  3.996	3.29
  3.999	3.38
      4	3.49
      4	3.31
  4.001	3.44
  4.003	2.91
  4.004	3.29
  4.004	 3.3
  4.005	3.22
  4.007	3.38
  4.008	3.13
  4.008	3.24
  4.009	3.15
  4.011	3.08
  4.012	3.16
  4.013	2.92
  4.014	3.15
  4.016	2.83
  4.016	3.12
   4.02	3.17
   4.02	 3.1
   4.02	3.15
  4.021	3.01
  4.023	3.12
  4.024	3.18
  4.027	2.94
  4.028	3.22
   4.03	3.05
  4.031	2.43
  4.032	3.28
  4.034	3.27
  4.036	3.22
  4.037	2.55
  4.037	3.41
   4.04	3.23
   4.04	2.89
  4.041	3.34
  4.043	3.37
  4.044	3.35
  4.044	3.28
  4.046	3.21
  4.048	3.29
  4.048	3.25
  4.049	3.28
  4.051	3.35
  4.052	3.17
  4.053	3.02
  4.053	2.95
  4.055	3.11
  4.055	3.13
  4.056	3.11
  4.058	3.13
   4.06	3.11
  4.062	3.21
  4.062	2.98
  4.064	3.11
  4.065	3.04
  4.068	3.23
  4.068	3.13
  4.069	2.93
  4.072	3.06
  4.072	3.14
  4.076	3.05
  4.076	3.19
  4.076	2.89
  4.079	2.92
   4.08	3.22
  4.082	3.13
  4.082	   3
  4.084	3.24
  4.085	3.08
  4.086	3.01
  4.088	3.24
  4.088	2.99
  4.089	3.13
  4.091	 3.2
  4.092	3.18
  4.093	 3.2
  4.096	3.21
  4.097	2.87
  4.098	 3.1
    4.1	3.08
    4.1	 3.2
  4.101	2.82
  4.102	2.83
  4.104	3.18
  4.106	3.06
  4.107	2.73
  4.108	3.17
  4.111	2.89
  4.112	3.15
  4.112	2.74
  4.113	2.76
  4.114	2.92
  4.116	3.12
  4.117	2.96
  4.117	 2.8
   4.12	3.13
   4.12	3.03
   4.12	3.09
  4.122	3.02
  4.123	2.85
  4.124	3.08
  4.124	3.15
  4.126	2.37
  4.126	2.75
  4.128	2.79
  4.128	3.22
   4.13	3.05
   4.13	2.89
  4.131	2.79
  4.132	2.99
  4.132	3.08
  4.133	 2.6
  4.134	2.88
  4.135	2.94
  4.136	2.87
  4.137	3.19
  4.137	2.92
  4.138	2.89
   4.14	3.11
   4.14	 2.9
  4.141	3.04
  4.142	2.91
  4.143	3.15
  4.144	2.88
  4.144	3.06
  4.146	3.16
  4.148	2.89
  4.148	3.31
  4.149	3.16
  4.149	3.08
  4.152	3.38
  4.153	2.74
  4.154	2.91
  4.154	3.45
  4.156	 3.2
  4.157	2.88
  4.157	2.76
  4.159	3.29
   4.16	3.12
  4.161	 3.3
  4.162	2.78
  4.163	3.17
  4.164	3.17
  4.167	2.87
  4.167	2.85
  4.168	3.21
  4.169	3.03
  4.172	2.92
  4.172	3.09
  4.175	   3
  4.175	3.07
  4.175	2.78
  4.176	3.02
  4.177	2.91
  4.179	2.99
   4.18	2.86
   4.18	3.09
  4.181	2.82
  4.183	 2.9
  4.184	3.09
  4.185	2.86
  4.187	3.02
  4.188	3.09
  4.189	2.89
  4.189	2.96
   4.19	2.89
  4.192	3.09
  4.193	2.95
  4.193	2.89
  4.196	3.04
  4.197	2.87
  4.198	2.98
    4.2	3.07
    4.2	2.85
  4.202	2.99
  4.204	3.02
  4.204	3.09
  4.206	2.87
  4.206	 2.4
  4.206	2.79
  4.206	3.08
  4.208	3.02
   4.21	3.07
  4.212	3.04
  4.213	2.89
  4.216	3.25
  4.216	 3.1
  4.217	2.99
  4.217	2.82
  4.218	2.91
  4.219	2.82
   4.22	3.08
  4.221	2.85
  4.222	2.82
  4.224	2.83
  4.224	3.05
  4.226	2.85
  4.226	2.89
  4.227	2.88
  4.228	3.19
  4.228	3.03
  4.229	2.94
  4.232	3.02
  4.232	3.26
  4.232	3.01
  4.233	3.16
  4.235	3.01
  4.236	3.09
  4.237	3.14
  4.237	2.81
  4.238	3.09
   4.24	3.14
  4.241	3.03
  4.244	3.12
  4.245	2.84
  4.245	2.86
  4.247	2.86
  4.248	2.87
  4.248	3.12
  4.248	2.76
  4.249	2.85
  4.249	3.08
  4.251	2.79
  4.251	3.04
  4.252	3.16
  4.254	3.31
  4.256	2.61
  4.256	3.34
  4.256	3.26
  4.257	3.13
  4.258	3.08
  4.258	 2.6
  4.259	3.05
   4.26	3.32
  4.261	3.16
  4.263	3.06
  4.263	3.16
  4.264	3.31
  4.266	3.07
  4.267	   3
  4.267	3.15
  4.268	3.14
  4.269	2.95
   4.27	2.85
  4.271	2.95
  4.272	3.08
  4.273	2.81
  4.273	2.82
  4.274	2.95
  4.276	 3.1
  4.278	2.69
  4.279	 2.7
 4.2795	2.61
   4.28	3.14
  4.281	3.17
  4.284	3.08
  4.285	3.11
  4.285	3.01
  4.288	3.25
  4.288	2.89
   4.29	2.91
  4.291	2.97
  4.291	3.03
  4.292	2.78
  4.294	3.01
  4.294	3.01
  4.296	2.91
  4.298	2.93
    4.3	2.83
    4.3	2.95
  4.302	2.86
  4.304	   3
  4.305	2.82
  4.306	3.13
  4.307	3.15
  4.308	3.09
  4.311	 3.1
  4.312	3.05
  4.315	2.86
  4.316	2.61
  4.316	2.89
  4.316	2.93
  4.319	2.79
  4.319	 2.7
   4.32	2.88
  4.321	2.74
  4.322	2.96
  4.323	2.59
  4.324	2.98
  4.325	 2.8
  4.326	2.67
  4.327	3.23
  4.328	3.14
  4.328	2.95
  4.329	2.81
  4.331	2.57
  4.332	2.97
  4.332	2.95
  4.333	2.75
  4.335	2.85
  4.336	2.65
  4.336	3.03
  4.336	2.84
  4.337	2.92
  4.338	2.58
   4.34	2.98
  4.341	3.05
  4.344	3.03
  4.345	2.85
  4.346	2.77
  4.347	2.86
  4.348	 3.2
  4.348	 3.1
   4.35	   3
  4.351	3.03
  4.352	 3.1
  4.353	2.92
  4.355	2.93
  4.356	3.37
  4.356	3.39
  4.356	3.07
  4.358	2.99
   4.36	2.99
   4.36	3.03
  4.361	3.06
 4.3628	2.71
  4.364	3.04
  4.364	3.01
  4.367	2.91
  4.368	 2.9
  4.369	2.84
  4.372	2.76
  4.372	2.92
  4.372	2.79
  4.374	2.45
  4.375	3.18
  4.376	2.68
  4.377	3.14
  4.377	   3
   4.38	3.08
   4.38	   3
   4.38	2.76
  4.383	3.18
  4.384	3.11
  4.384	2.98
  4.385	3.01
  4.388	3.21
  4.388	3.12
   4.39	3.02
   4.39	2.98
  4.392	3.14
  4.393	2.88
  4.393	2.86
  4.396	3.04
  4.396	2.97
  4.396	3.11
  4.398	2.89
  4.398	3.19
    4.4	2.98
    4.4	3.22
    4.4	3.08
  4.401	3.08
  4.404	2.71
  4.404	2.98
  4.404	3.11
  4.406	2.83
  4.408	3.15
  4.409	2.89
  4.412	3.04
  4.412	3.08
  4.413	2.94
  4.415	 2.7
  4.415	   3
  4.416	2.95
  4.418	2.95
  4.419	3.09
   4.42	2.94
  4.421	3.27
  4.424	 2.9
  4.425	 3.2
  4.425	2.88
  4.428	   3
  4.431	2.92
  4.431	2.64
  4.434	2.93
  4.435	2.87
  4.438	2.88
  4.439	2.86
   4.44	2.86
  4.441	2.65
  4.444	2.85
  4.447	3.12
  4.449	3.13
   4.45	   3
  4.453	2.52
  4.454	2.95
  4.457	2.81
 4.4578	2.57
  4.461	3.07
  4.461	3.13
  4.461	2.88
  4.461	3.03
  4.464	 2.8
  4.466	3.58
  4.467	2.82
   4.47	2.87
  4.471	2.67
  4.471	 3.1
  4.473	2.91
  4.474	2.69
  4.476	3.12
  4.478	2.82
   4.48	2.95
  4.481	2.84
  4.482	3.07
  4.485	2.64
  4.487	3.02
  4.489	 2.9
  4.492	 3.1
  4.492	2.84
  4.492	 2.9
  4.494	2.91
  4.496	2.88
  4.497	2.82
  4.498	3.23
  4.498	3.11
    4.5	2.93
  4.502	3.26
  4.502	2.68
  4.503	3.14
  4.504	2.94
  4.506	2.95
  4.509	2.72
  4.511	3.16
  4.514	2.92
  4.514	3.26
  4.515	3.12
  4.517	3.31
  4.518	2.91
  4.519	3.15
  4.521	3.13
  4.523	2.91
  4.524	2.64
  4.526	2.87
  4.528	2.99
  4.528	3.16
  4.529	2.79
   4.53	2.78
  4.531	2.87
  4.532	2.96
  4.532	3.08
  4.533	2.93
  4.535	2.93
  4.536	3.08
  4.537	2.93
  4.539	3.27
  4.539	3.06
   4.54	2.94
   4.54	3.12
  4.541	3.11
  4.543	2.88
  4.544	3.19
  4.545	2.98
  4.547	2.96
  4.548	3.23
  4.549	3.05
  4.551	2.96
  4.552	3.13
  4.552	3.26
  4.553	3.29
  4.555	 3.2
  4.556	3.26
  4.557	3.03
  4.557	3.43
  4.559	3.07
  4.559	3.31
   4.56	3.24
  4.561	3.26
  4.563	3.02
  4.563	3.15
  4.564	 3.2
  4.565	3.09
  4.568	2.88
  4.568	2.97
  4.568	3.15
   4.57	3.07
  4.571	3.07
  4.571	3.16
  4.572	3.16
  4.573	3.09
  4.575	3.05
  4.576	3.17
  4.576	2.91
  4.576	3.12
  4.578	2.96
  4.578	2.98
   4.58	3.27
  4.581	3.05
  4.581	2.93
  4.583	2.93
  4.583	2.99
  4.584	3.27
  4.585	2.87
  4.586	2.77
  4.587	3.08
  4.588	3.13
  4.589	3.17
  4.589	   3
  4.591	3.07
  4.592	3.08
  4.592	3.12
  4.594	3.23
  4.595	3.07
  4.595	3.29
  4.596	3.17
  4.596	3.22
  4.597	3.05
  4.598	 3.5
    4.6	3.05
    4.6	3.27
  4.601	2.99
  4.602	3.19
  4.604	2.99
  4.604	3.35
  4.606	3.01
  4.606	2.79
  4.607	3.09
  4.607	3.26
  4.608	3.33
  4.609	3.19
  4.611	3.03
  4.612	2.89
  4.612	3.29
  4.613	3.37
  4.614	3.02
  4.616	3.23
  4.616	3.22
  4.617	3.23
  4.618	2.96
  4.618	3.11
  4.619	2.88
   4.62	3.19
  4.621	3.03
  4.623	2.79
  4.624	3.22
  4.625	2.87
  4.626	 2.9
  4.627	2.98
  4.628	2.94
  4.628	3.23
  4.628	2.72
  4.631	3.23
  4.632	3.21
  4.633	3.01
  4.633	3.23
  4.635	3.12
  4.636	3.13
  4.636	3.22
  4.637	3.11
  4.638	3.06
  4.639	2.67
   4.64	2.99
   4.64	3.28
  4.641	3.17
  4.643	2.93
  4.644	3.32
  4.645	2.99
  4.648	2.89
  4.648	3.34
  4.648	2.95
  4.651	2.84
  4.652	3.33
  4.654	2.95
  4.654	3.42
  4.656	3.03
  4.656	3.25
  4.657	2.84
  4.659	2.97
   4.66	3.15
  4.663	2.74
  4.664	 3.1
  4.664	2.99
  4.665	3.06
  4.667	3.11
  4.668	2.46
  4.668	3.23
  4.668	 3.3
  4.668	3.11
   4.67	3.37
  4.671	3.46
  4.671	3.28
  4.672	3.31
  4.672	3.09
  4.673	3.24
  4.674	 3.1
  4.674	3.03
  4.675	2.89
  4.676	2.99
  4.676	3.08
  4.678	2.86
  4.678	3.17
  4.679	 3.1
   4.68	3.24
   4.68	3.11
  4.681	3.25
  4.681	3.26
  4.682	3.13
  4.682	3.19
  4.683	3.06
  4.684	2.95
  4.684	 3.2
  4.684	2.75
  4.686	3.03
  4.688	3.14
  4.689	3.14
   4.69	3.03
  4.691	3.13
  4.692	3.06
  4.693	   3
  4.694	 3.2
  4.695	3.43
  4.695	3.13
  4.695	2.99
  4.696	3.07
  4.697	3.12
    4.7	2.97
    4.7	3.09
  4.701	3.03
  4.702	   3
  4.704	2.97
  4.704	3.16
  4.705	3.29
  4.705	3.16
  4.705	2.92
  4.706	3.33
  4.708	3.23
  4.708	3.19
   4.71	3.64
  4.711	3.26
  4.712	 3.2
  4.714	3.73
  4.716	3.22
  4.717	2.95
  4.718	3.23
   4.72	3.69
   4.72	3.19
  4.721	3.36
  4.722	3.06
  4.723	3.12
  4.724	3.09
  4.724	3.01
  4.724	3.21
  4.726	2.97
  4.726	   3
  4.726	2.76
  4.728	3.04
   4.73	 3.2
  4.731	2.93
  4.731	3.01
  4.732	2.69
  4.733	2.87
  4.733	2.99
  4.734	3.08
  4.735	3.04
  4.735	3.05
  4.735	3.27
  4.736	2.91
  4.737	2.91
  4.739	3.02
   4.74	2.84
  4.742	2.93
  4.742	2.84
  4.742	2.83
  4.743	2.86
  4.744	3.21
  4.745	2.96
  4.745	3.03
  4.746	3.01
  4.748	 3.2
  4.748	 3.2
  4.751	3.13
  4.751	3.32
  4.752	3.14
  4.752	3.18
  4.753	 2.8
  4.756	3.27
  4.758	3.17
  4.758	3.27
   4.76	3.31
  4.761	3.02
  4.762	3.38
  4.763	2.86
  4.763	2.78
  4.764	3.01
  4.764	 3.2
  4.765	3.12
  4.766	2.98
  4.767	3.13
  4.767	2.99
  4.768	2.81
  4.768	3.12
  4.769	2.78
  4.771	3.04
  4.772	2.93
  4.772	3.08
  4.773	2.78
  4.774	2.75
  4.776	3.04
  4.776	3.08
  4.779	3.19
   4.78	3.01
   4.78	 3.2
  4.781	2.88
  4.783	3.04
  4.784	3.33
  4.784	2.75
  4.787	   3
  4.788	3.36
  4.789	3.24
   4.79	3.23
  4.791	3.25
  4.792	3.27
  4.793	3.32
  4.793	3.05
  4.794	3.02
  4.794	3.04
  4.796	3.02
  4.796	3.18
  4.797	3.09
  4.798	2.88
  4.799	3.25
    4.8	2.99
    4.8	3.11
  4.802	2.86
  4.804	2.61
  4.804	3.09
  4.805	2.59
  4.806	3.14
  4.808	3.11
   4.81	2.97
   4.81	2.75
   4.81	2.65
  4.812	3.21
  4.816	2.76
  4.816	3.31
   4.82	2.63
   4.82	3.36
   4.82	2.59
  4.822	3.15
  4.823	2.74
  4.824	 3.4
  4.825	3.28
  4.826	3.36
  4.827	3.29
  4.828	3.31
  4.828	3.45
  4.829	3.59
   4.83	3.47
   4.83	2.53
  4.832	3.42
  4.833	3.37
  4.835	3.34
  4.836	3.34
  4.837	3.39
  4.839	3.32
   4.84	3.34
  4.841	3.31
  4.841	2.67
  4.841	2.93
  4.842	2.99
  4.842	2.99
  4.843	2.98
  4.843	3.23
  4.844	3.35
  4.845	   3
  4.845	3.06
  4.846	2.94
  4.848	3.09
  4.848	2.99
  4.848	3.21
  4.849	2.74
   4.85	2.96
  4.851	2.92
  4.851	2.87
  4.852	2.73
  4.852	3.14
  4.854	2.93
  4.854	2.83
  4.854	2.85
  4.856	2.99
  4.856	3.18
  4.859	3.03
   4.86	2.94
   4.86	3.21
  4.861	3.05
  4.861	2.56
  4.864	2.76
  4.864	 3.2
  4.864	3.21
  4.866	3.19
  4.868	3.42
  4.868	3.21
  4.869	 3.4
   4.87	3.53
  4.871	3.47
  4.872	3.26
  4.873	2.56
  4.874	3.46
  4.875	3.26
  4.876	3.55
  4.876	3.38
  4.878	 3.4
  4.879	3.45
   4.88	3.51
  4.881	3.36
  4.883	3.19
  4.883	2.63
  4.884	3.12
  4.884	3.53
  4.885	3.42
  4.887	3.14
  4.888	3.53
  4.889	2.94
   4.89	3.04
  4.892	   3
  4.892	3.35
  4.895	2.54
  4.895	3.29
  4.895	2.85
  4.896	3.23
  4.897	2.87
  4.898	2.96
    4.9	2.95
    4.9	 3.2
  4.902	3.04
  4.904	3.03
  4.904	3.06
  4.904	3.22
  4.906	3.06
  4.907	2.96
  4.908	3.24
  4.909	3.08
  4.909	2.77
  4.911	3.04
  4.912	3.22
  4.914	2.94
  4.916	   3
  4.916	3.22
  4.918	3.15
  4.918	2.98
  4.919	2.75
   4.92	2.94
   4.92	3.27
  4.922	   3
  4.924	3.32
  4.925	3.13
  4.927	 3.1
  4.928	3.11
  4.928	 2.8
  4.928	3.39
   4.93	3.17
  4.932	3.14
  4.932	3.41
  4.933	3.15
  4.936	3.09
  4.936	3.15
  4.936	3.41
  4.938	3.09
   4.94	3.03
   4.94	3.34
   4.94	2.71
  4.941	2.97
  4.941	 2.8
  4.943	2.94
  4.944	3.22
  4.945	2.84
  4.947	2.97
  4.948	3.18
   4.95	2.74
  4.951	2.98
  4.951	3.12
  4.951	 2.8
  4.952	3.18
  4.955	3.17
  4.956	3.02
  4.956	 3.2
  4.959	2.84
   4.96	3.22
   4.96	 2.6
  4.961	2.57
  4.963	3.01
  4.963	2.93
  4.964	3.23
  4.965	3.13
  4.965	2.86
  4.966	2.67
  4.967	2.57
  4.969	2.89
  4.969	2.35
  4.972	2.45
  4.974	2.87
  4.975	2.94
  4.977	2.95
  4.978	3.12
  4.978	2.88
   4.98	2.66
  4.981	2.76
  4.981	 3.1
  4.983	 2.8
  4.984	2.94
  4.984	2.57
  4.985	3.07
  4.987	2.76
  4.987	2.93
  4.988	2.87
  4.988	2.82
  4.993	3.23
  4.994	 2.9
  4.994	2.92
  4.997	3.22
  4.998	3.01
  4.998	2.82
  4.999	3.01
      5	2.35
  5.002	2.97
  5.003	2.35
  5.006	2.98
  5.008	2.89
  5.008	2.66
   5.01	3.14
  5.012	 2.9
  5.015	3.31
  5.015	 2.9
  5.016	3.12
  5.019	2.93
  5.019	3.06
   5.02	2.81
  5.024	2.84
  5.025	2.94
  5.029	2.83
  5.029	 2.8
  5.029	2.97
  5.033	 2.7
  5.035	2.93
  5.038	2.95
  5.038	 2.2
   5.04	2.82
  5.041	3.29
  5.041	2.79
  5.044	2.59
  5.045	3.26
  5.045	2.88
  5.047	2.79
  5.049	3.15
  5.051	 2.8
  5.052	3.13
  5.054	2.86
  5.055	2.79
  5.057	2.99
  5.057	2.99
  5.061	3.08
  5.062	2.98
  5.065	   3
  5.066	2.89
  5.068	2.82
  5.069	2.98
   5.07	2.88
  5.071	3.04
  5.072	 2.9
  5.074	2.86
  5.075	 2.5
  5.076	3.07
  5.082	 2.9
  5.082	2.71
  5.086	2.69
  5.087	2.83
  5.091	3.04
  5.091	2.93
  5.095	 2.7
  5.095	3.11
  5.099	2.88
  5.099	3.15
  5.102	 2.8
  5.103	2.66
  5.103	3.29
  5.105	2.58
  5.107	2.78
  5.108	2.98
  5.109	2.99
  5.111	2.91
  5.113	3.18
  5.114	3.11
  5.115	3.12
  5.117	3.01
  5.118	3.09
  5.118	 2.9
   5.12	2.93
  5.122	2.99
  5.124	2.77
  5.126	2.93
  5.127	3.04
  5.127	2.79
  5.128	2.46
   5.13	 2.7
  5.132	2.74
  5.132	3.17
  5.134	2.52
  5.136	2.61
  5.137	 2.5
  5.139	2.73
  5.139	2.86
   5.14	2.82
  5.141	2.84
  5.142	2.99
  5.142	2.92
  5.143	2.89
  5.145	2.86
  5.146	2.98
  5.147	 2.8
  5.147	2.72
  5.148	2.94
  5.148	2.74
   5.15	2.55
   5.15	2.94
  5.152	2.94
  5.152	3.19
  5.154	2.92
  5.155	2.72
  5.156	3.02
  5.157	3.01
  5.158	3.28
  5.159	2.82
  5.159	 3.3
  5.159	2.58
  5.159	2.81
   5.16	3.19
  5.162	 3.1
  5.163	2.56
  5.164	3.11
  5.165	3.21
  5.166	3.16
  5.166	 2.7
  5.167	2.97
  5.168	 2.9
  5.169	2.57
   5.17	2.86
   5.17	 2.9
   5.17	2.98
   5.17	2.82
  5.172	2.89
  5.173	3.09
  5.175	2.73
  5.175	2.89
  5.178	2.62
  5.179	2.95
  5.183	2.66
  5.183	2.48
  5.183	2.71
  5.184	2.84
  5.185	2.78
  5.187	2.96
  5.188	2.59
  5.189	2.87
   5.19	 3.3
  5.191	2.87
  5.193	2.87
  5.193	2.63
  5.194	2.81
  5.196	 2.8
  5.198	2.77
    5.2	 2.8
  5.203	 2.5
  5.205	2.89
  5.206	2.79
  5.207	2.73
  5.209	2.49
  5.211	 2.9
  5.215	2.87
  5.217	2.91
  5.219	2.95
   5.22	2.87
  5.221	2.92
  5.222	2.65
  5.222	2.69
  5.224	   3
  5.224	2.91
  5.225	2.77
  5.228	2.57
  5.232	2.79
  5.236	2.53
  5.237	3.12
  5.237	2.95
  5.238	2.89
  5.239	   3
   5.24	2.62
  5.241	2.92
  5.242	2.61
  5.243	2.96
  5.244	3.41
  5.245	2.65
  5.246	3.07
  5.247	2.86
  5.248	2.83
  5.249	2.86
  5.249	2.47
  5.251	2.87
  5.252	3.02
  5.253	 2.8
  5.253	 2.7
  5.255	2.72
  5.257	2.73
  5.257	2.68
  5.259	2.82
  5.261	2.77
  5.261	2.59
  5.264	2.95
  5.266	2.72
 5.2679	 2.7
  5.268	2.97
  5.268	3.15
  5.269	2.85
  5.269	2.93
  5.269	2.73
  5.271	 2.9
  5.271	2.93
  5.272	2.95
  5.273	3.06
  5.273	2.49
  5.274	2.95
  5.275	 2.9
  5.276	3.17
  5.277	3.07
  5.278	2.68
  5.279	2.79
  5.281	2.94
  5.281	2.77
  5.283	2.94
  5.284	2.65
  5.286	2.87
  5.286	2.74
  5.288	2.89
  5.289	2.96
  5.289	2.77
   5.29	2.69
  5.291	2.74
  5.294	2.84
  5.295	2.79
  5.298	2.93
  5.299	   3
  5.299	2.93
    5.3	   3
  5.302	3.04
  5.303	2.88
  5.304	2.84
  5.305	3.03
  5.306	2.88
  5.308	 2.7
 5.3084	2.61
  5.309	2.76
  5.312	 2.9
  5.313	2.94
  5.315	2.69
  5.318	2.97
  5.318	2.76
   5.32	2.77
  5.322	2.79
  5.323	2.73
  5.325	2.62
  5.327	2.71
  5.327	2.76
   5.33	2.29
  5.331	2.58
  5.332	2.95
  5.334	3.09
  5.336	2.82
  5.336	2.78
  5.338	2.94
   5.34	2.93
   5.34	2.86
  5.343	2.92
  5.347	2.97
  5.349	2.55
  5.349	2.96
   5.35	2.75
 5.3511	 2.7
  5.352	3.11
  5.354	2.76
  5.355	3.18
  5.357	3.02
  5.359	2.75
  5.361	2.86
 5.3625	2.52
  5.363	2.76
  5.364	2.62
  5.365	3.09
  5.369	   3
  5.369	2.61
  5.371	2.87
  5.372	2.88
  5.373	3.11
  5.374	2.92
  5.377	2.89
  5.379	3.08
  5.379	2.53
  5.381	   3
  5.384	2.79
  5.384	2.91
  5.386	2.79
  5.386	2.81
  5.388	2.86
  5.389	2.87
  5.391	2.75
  5.393	2.62
  5.394	2.73
  5.394	 2.6
  5.396	2.73
  5.397	2.68
  5.398	2.92
    5.4	2.68
    5.4	2.75
  5.401	3.23
  5.403	2.81
 5.4031	2.67
  5.405	2.76
  5.406	2.96
  5.408	2.99
  5.409	3.04
  5.411	2.98
  5.412	2.78
  5.413	2.92
  5.415	2.92
  5.415	2.79
  5.418	3.11
   5.42	3.03
   5.42	0.42
  5.421	2.95
  5.422	3.06
  5.425	2.77
  5.427	2.86
  5.429	2.92
   5.43	2.73
  5.432	3.21
  5.434	2.79
  5.435	2.86
  5.437	3.35
  5.438	2.81
  5.439	2.84
  5.441	 2.8
 5.4437	2.77
  5.444	2.77
  5.445	 2.7
  5.447	2.84
   5.45	 2.9
  5.453	2.85
  5.454	2.67
  5.455	3.15
  5.457	2.65
  5.459	2.44
   5.46	2.83
  5.461	2.41
  5.464	3.07
  5.466	2.76
  5.468	2.79
  5.469	 2.8
   5.47	2.84
  5.472	2.78
  5.474	2.23
  5.475	2.93
  5.476	2.61
  5.479	2.77
   5.48	2.87
  5.481	2.84
  5.483	2.54
 5.4842	2.71
  5.485	2.57
  5.486	2.89
  5.486	2.86
  5.488	2.86
  5.489	2.93
  5.489	2.64
  5.491	2.86
  5.491	3.04
  5.491	2.76
  5.493	2.97
  5.493	3.04
  5.494	2.74
  5.495	 2.9
  5.495	3.14
  5.496	3.05
  5.496	2.62
  5.497	3.07
  5.497	 3.1
  5.497	 2.7
  5.498	 3.1
  5.499	3.24
    5.5	2.91
  5.501	3.12
  5.502	2.97
  5.502	3.08
  5.502	2.72
  5.504	2.88
  5.504	2.93
  5.506	2.83
  5.506	2.83
  5.508	2.92
  5.508	3.06
  5.509	2.86
   5.51	 2.9
  5.511	2.94
  5.512	2.68
  5.513	3.31
  5.514	2.79
  5.514	2.88
  5.516	3.03
  5.518	2.98
   5.52	2.99
   5.52	2.99
  5.523	 2.7
 5.5248	2.68
  5.525	 2.8
  5.526	2.65
  5.527	2.73
  5.528	2.76
   5.53	2.85
  5.531	2.94
  5.532	2.69
  5.533	3.08
  5.536	   3
  5.537	3.28
  5.539	3.33
   5.54	3.16
  5.541	2.76
  5.541	3.27
  5.542	3.26
  5.543	3.14
  5.545	3.13
  5.546	3.12
  5.548	 2.9
   5.55	2.84
  5.552	2.91
  5.554	3.03
  5.554	2.95
  5.556	3.06
  5.556	2.85
  5.558	3.03
  5.558	2.76
   5.56	3.28
  5.562	3.25
  5.563	2.74
  5.564	3.17
 5.5654	2.68
  5.566	3.03
  5.568	 3.3
   5.57	3.34
   5.57	3.08
  5.571	3.28
  5.571	2.93
  5.573	3.31
  5.574	3.18
  5.575	 3.1
  5.576	2.94
  5.577	3.04
  5.578	3.08
   5.58	3.03
  5.581	 2.9
  5.583	2.99
  5.583	   3
  5.584	3.14
  5.585	3.14
  5.585	3.14
  5.587	2.64
  5.587	3.08
  5.588	3.02
  5.589	3.11
  5.591	 3.1
  5.591	2.97
  5.592	3.01
  5.592	 3.3
  5.593	3.08
  5.594	2.98
  5.595	3.04
  5.597	3.13
  5.598	2.83
  5.599	3.11
  5.599	3.32
    5.6	3.16
    5.6	2.25
  5.601	3.04
  5.603	2.96
  5.604	3.01
  5.604	2.34
  5.605	2.83
  5.606	 2.7
  5.606	2.74
  5.608	 2.7
  5.608	 2.7
  5.608	3.12
  5.609	2.73
   5.61	3.24
  5.611	2.84
  5.612	2.81
  5.612	2.73
  5.614	2.82
  5.615	2.88
  5.616	3.07
  5.617	3.03
  5.617	2.93
  5.619	2.83
  5.619	3.09
   5.62	3.19
  5.621	3.04
  5.621	3.08
  5.621	2.76
  5.622	3.11
  5.623	3.05
  5.624	2.95
 5.6249	3.11
  5.625	2.99
  5.625	3.28
  5.625	2.95
  5.628	2.77
   5.63	 3.1
  5.631	3.21
  5.632	3.21
  5.634	 3.1
  5.637	3.25
   5.64	3.08
  5.642	2.83
  5.643	3.14
  5.644	3.13
  5.646	3.05
  5.648	3.11
   5.65	3.18
  5.652	3.36
  5.654	3.29
  5.654	2.64
  5.656	3.23
  5.657	2.96
  5.658	2.82
  5.659	 2.7
   5.66	2.83
  5.662	3.12
  5.664	2.96
 5.6655	2.92
  5.666	   3
  5.668	3.08
  5.669	2.68
   5.67	3.05
  5.671	3.15
  5.673	3.25
  5.675	 3.3
  5.676	2.84
  5.677	3.04
  5.678	2.88
  5.679	3.05
  5.681	3.39
  5.682	2.84
 5.6823	2.86
  5.684	3.37
 5.6844	2.57
  5.687	3.12
   5.69	3.35
  5.692	 3.3
  5.693	 3.3
  5.693	3.16
  5.696	3.21
  5.697	3.12
    5.7	3.01
  5.705	3.09
  5.706	2.89
  5.712	3.55
  5.716	2.68
   5.72	 3.3
  5.722	3.04
  5.723	2.77
  5.724	3.03
  5.725	2.94
  5.726	2.83
  5.726	3.21
  5.727	3.44
  5.729	3.23
  5.729	3.33
   5.73	 3.3
   5.73	3.34
  5.731	3.21
  5.732	3.38
  5.733	3.34
  5.734	3.27
  5.735	2.98
  5.735	3.02
  5.736	3.26
  5.738	3.02
  5.738	3.11
  5.739	   3
   5.74	2.99
  5.741	2.94
  5.741	2.96
  5.743	3.08
  5.743	3.15
  5.745	3.05
  5.745	3.55
 5.7452	2.79
  5.747	3.04
  5.747	3.15
  5.748	3.09
  5.749	2.88
   5.75	2.95
   5.75	3.32
  5.751	3.38
  5.751	2.88
  5.752	2.97
  5.752	3.36
  5.753	3.24
  5.753	3.49
  5.753	 3.5
  5.754	3.35
  5.754	3.55
  5.754	 3.6
  5.755	3.07
  5.755	3.28
  5.755	3.56
  5.756	3.01
  5.756	 3.3
  5.756	3.22
  5.757	3.16
  5.758	2.92
  5.758	2.99
  5.759	2.92
  5.759	3.02
   5.76	2.96
   5.76	2.96
   5.76	3.02
  5.761	2.94
  5.761	 3.1
  5.761	3.17
  5.762	2.99
  5.762	   3
  5.762	3.04
  5.763	3.07
  5.763	3.08
  5.763	 3.4
  5.764	2.92
  5.765	3.13
 5.7655	2.68
  5.767	3.16
  5.767	3.39
  5.768	3.18
  5.768	2.93
  5.769	3.04
   5.77	2.92
   5.77	2.94
  5.771	2.97
  5.771	3.28
 5.7719	2.94
  5.772	2.79
  5.772	   3
  5.772	3.19
  5.773	3.12
  5.774	2.96
  5.774	 2.5
  5.776	   3
  5.777	2.95
  5.778	3.09
  5.778	2.74
  5.779	2.85
  5.781	2.92
  5.783	2.97
  5.784	2.61
  5.784	 3.2
  5.785	2.98
  5.786	2.99
  5.787	2.86
  5.787	2.93
  5.787	3.36
  5.787	3.48
  5.787	3.48
  5.788	3.02
  5.789	3.12
  5.791	3.11
  5.792	3.17
  5.793	2.93
  5.794	3.03
  5.794	3.15
  5.794	 3.6
  5.794	2.98
  5.794	3.37
  5.795	 2.8
  5.795	2.93
  5.795	2.94
  5.795	3.18
  5.795	3.23
  5.796	3.07
  5.796	3.13
  5.797	2.92
  5.797	2.96
  5.797	2.99
  5.798	2.95
  5.798	3.04
  5.798	3.06
  5.798	3.08
 5.7987	 2.9
  5.799	3.06
  5.799	3.09
  5.799	3.11
  5.799	3.22
    5.8	2.86
    5.8	2.91
    5.8	2.92
    5.8	2.96
    5.8	3.06
    5.8	3.08
  5.801	2.96
  5.801	3.09
  5.801	3.12
  5.801	3.18
  5.802	3.02
  5.802	3.13
  5.802	2.82
  5.803	2.89
  5.803	3.22
  5.803	3.34
  5.804	3.15
  5.804	3.18
  5.805	2.99
  5.805	3.07
  5.806	2.95
  5.806	3.08
 5.8061	2.43
  5.807	2.78
  5.807	2.84
  5.807	2.98
  5.808	2.74
  5.808	3.07
  5.809	3.17
   5.81	3.06
   5.81	3.08
  5.811	 3.1
  5.812	2.99
  5.812	3.17
  5.812	2.82
  5.813	2.79
  5.813	3.02
  5.814	2.93
  5.815	3.13
  5.816	2.91
  5.816	 2.8
  5.818	3.21
   5.82	3.18
   5.82	2.74
  5.822	3.23
  5.824	3.03
  5.824	2.91
  5.826	3.13
 5.8277	2.73
  5.829	2.97
  5.831	2.94
  5.831	2.99
  5.834	3.05
  5.837	3.13
  5.838	2.99
 5.8389	 2.9
   5.84	3.17
  5.843	3.35
  5.846	2.99
  5.849	3.19
  5.851	3.02
  5.851	2.52
  5.854	3.27
  5.857	3.02
  5.859	3.16
  5.862	2.77
  5.864	3.21
  5.865	 2.9
  5.867	 3.1
 5.8683	2.93
   5.87	3.02
  5.873	3.11
  5.873	 2.7
  5.876	2.92
  5.879	3.02
 5.8818	2.93
  5.882	 2.9
  5.882	2.69
  5.885	3.19
  5.886	3.02
  5.887	2.92
  5.888	3.24
   5.89	3.18
  5.893	3.08
  5.894	2.82
  5.895	3.08
  5.897	3.16
    5.9	 3.1
  5.902	3.48
  5.904	3.09
  5.907	 3.1
  5.909	 3.1
  5.911	3.27
  5.912	3.26
  5.912	3.34
  5.914	3.01
  5.916	2.96
  5.917	3.13
  5.919	3.14
  5.922	3.17
  5.922	2.67
  5.924	3.18
  5.927	3.15
  5.928	2.89
  5.928	 2.8
  5.928	2.92
  5.929	3.23
  5.932	3.25
 5.9326	2.82
  5.933	3.07
  5.934	3.19
  5.937	3.02
  5.937	2.92
  5.939	3.21
  5.942	3.26
  5.942	2.71
  5.944	2.93
  5.947	2.95
  5.949	 2.9
   5.95	2.93
  5.951	 3.1
  5.952	3.71
  5.953	2.96
 5.9548	2.98
  5.955	3.19
  5.957	2.96
  5.958	2.98
   5.96	2.98
  5.963	3.09
 5.9636	 3.2
  5.966	3.02
  5.967	3.12
  5.968	3.09
  5.971	3.12
  5.973	3.23
  5.975	2.97
 5.9766	2.75
  5.977	2.93
  5.978	3.09
  5.979	3.15
  5.981	3.12
  5.982	3.08
  5.982	3.02
  5.985	2.74
  5.988	2.67
   5.99	2.87
   5.99	3.02
   5.99	2.52
  5.991	3.14
  5.992	3.04
  5.994	3.18
  5.994	3.35
  5.995	3.17
  5.995	3.23
  5.998	2.93
  5.998	2.81
      6	2.67
  6.002	3.23
  6.002	2.98
  6.003	2.93
  6.004	   3
  6.005	3.01
  6.006	3.19
  6.007	3.05
  6.007	2.98
 6.0076	2.91
  6.009	3.12
   6.01	2.91
  6.012	2.96
  6.013	 2.8
  6.015	 2.8
  6.016	2.99
 6.0178	2.71
  6.018	3.12
  6.019	3.13
  6.019	2.68
  6.021	3.11
  6.022	3.05
  6.022	3.09
  6.023	3.04
  6.024	3.16
  6.025	2.97
  6.025	2.99
 6.0252	3.18
 6.0252	2.89
 6.0252	 2.5
  6.026	2.77
  6.028	3.01
  6.029	2.96
   6.03	2.95
  6.031	 3.2
  6.032	 3.1
  6.033	2.98
  6.035	3.11
  6.036	2.75
  6.038	3.09
  6.038	2.92
  6.039	3.22
   6.04	2.86
  6.041	2.86
  6.043	2.92
  6.044	3.34
  6.046	3.21
  6.046	2.98
  6.048	3.11
  6.049	 2.9
  6.051	   3
  6.051	3.13
  6.052	3.18
  6.054	 3.1
  6.054	2.76
  6.055	2.94
  6.056	2.86
  6.057	2.69
  6.058	 2.8
  6.059	2.72
   6.06	2.57
   6.06	2.61
  6.061	2.87
  6.062	3.06
  6.064	2.87
  6.066	2.82
  6.067	2.99
 6.0692	2.76
   6.07	   3
  6.071	2.94
  6.071	2.89
  6.072	2.77
  6.073	2.71
 6.0738	 2.6
  6.074	2.83
  6.075	 2.7
  6.075	2.91
  6.075	3.16
  6.077	2.66
  6.079	2.79
   6.08	3.19
  6.083	3.07
  6.085	2.88
  6.085	3.12
  6.087	3.03
  6.088	3.05
  6.089	3.12
   6.09	 2.7
   6.09	3.06
  6.092	2.94
 6.0922	3.17
  6.094	2.74
  6.095	2.99
  6.098	2.88
  6.099	3.04
  6.099	2.89
  6.101	2.91
  6.103	   3
  6.104	2.91
  6.104	3.36
  6.105	2.69
  6.106	2.98
  6.109	3.03
  6.109	2.59
  6.112	   3
  6.114	2.94
  6.115	3.02
  6.118	 2.9
  6.119	2.76
  6.119	3.05
  6.121	2.99
 6.1224	2.71
  6.123	2.97
  6.123	3.01
  6.124	3.07
  6.125	3.21
  6.128	3.44
   6.13	2.88
  6.131	2.84
  6.133	 3.4
 6.1348	2.92
  6.136	3.29
  6.136	2.98
  6.142	2.81
  6.148	2.62
  6.149	2.85
  6.153	2.93
  6.159	3.04
 6.1642	2.63
  6.165	2.56
  6.165	2.91
  6.171	2.77
   6.18	2.51
 6.1823	2.61
  6.183	2.54
  6.189	2.34
  6.195	2.88
  6.199	3.19
  6.203	2.73
  6.211	2.75
  6.215	2.77
  6.218	2.24
 6.2199	3.22
 6.2211	2.58
  6.225	2.88
  6.231	2.59
  6.232	2.86
  6.244	3.03
  6.248	2.69
 6.2483	2.86
   6.25	2.96
  6.256	3.05
  6.258	2.78
 6.2599	2.69
  6.262	2.85
  6.273	2.85
  6.274	2.85
 6.2767	2.89
  6.279	2.79
  6.285	3.28
  6.291	2.57
  6.291	3.01
  6.295	 2.5
  6.301	2.65
  6.306	2.55
  6.306	2.85
 6.3077	2.67
  6.312	2.78
  6.317	2.73
 6.3192	2.95
  6.325	 2.8
  6.327	2.58
  6.332	   3
 6.3334	3.11
  6.337	2.82
  6.342	2.35
  6.342	 2.9
  6.347	3.01
 6.3511	2.39
  6.353	 2.8
  6.358	2.87
  6.358	2.85
 6.3582	2.67
 6.3618	2.89
  6.363	2.86
  6.369	2.82
  6.374	2.23
  6.376	2.81
  6.379	2.54
  6.384	2.69
  6.385	2.94
    6.4	3.03
  6.405	 2.9
 6.4067	3.03
 6.4067	3.09
 6.4087	2.63
   6.41	2.97
  6.416	2.79
  6.418	2.96
  6.422	2.68
  6.427	3.11
  6.431	2.78
  6.433	2.94
  6.435	2.59
   6.44	2.79
  6.445	3.03
   6.45	   3
   6.45	2.83
  6.455	2.88
 6.4603	 3.1
 6.4603	3.11
 6.4603	2.91
  6.461	2.86
  6.466	2.27
  6.467	 2.8
  6.471	2.16
  6.477	2.94
 6.4795	2.55
  6.482	 2.9
  6.483	2.75
  6.487	 2.8
  6.493	2.59
  6.498	2.78
 6.4987	2.96
  6.501	3.03
  6.504	2.87
   6.51	2.82
  6.517	2.66
  6.522	 2.9
  6.526	2.71
  6.528	2.73
   6.53	2.64
  6.538	2.61
  6.542	2.69
  6.544	2.88
 6.5447	3.29
 6.5523	3.01
  6.555	2.54
   6.56	2.66
   6.56	2.89
  6.565	2.46
  6.576	2.84
  6.577	3.22
 6.5787	2.73
  6.582	2.78
  6.588	2.49
  6.593	2.71
  6.594	2.87
  6.595	2.89
  6.597	2.83
  6.602	2.81
  6.607	2.56
  6.607	2.97
  6.612	2.95
  6.616	   3
  6.618	2.94
   6.62	2.81
 6.6225	2.67
  6.623	2.84
  6.624	2.94
  6.627	2.91
  6.628	2.79
  6.628	2.91
  6.629	3.06
  6.629	2.94
  6.632	2.82
  6.632	3.05
  6.636	2.64
  6.637	2.71
  6.637	2.76
  6.641	2.99
  6.644	3.07
  6.646	2.99
  6.648	 2.9
  6.653	2.79
  6.653	3.32
  6.653	3.02
  6.657	 2.9
  6.662	2.85
  6.671	2.72
  6.671	2.71
  6.676	2.55
  6.681	2.85
  6.681	 2.9
 6.6844	2.48
  6.686	2.66
  6.687	2.94
  6.698	2.64
  6.704	2.69
  6.716	1.78
  6.721	2.81
  6.722	2.86
  6.728	2.79
 6.7287	3.19
  6.733	2.84
  6.739	2.75
  6.751	2.71
  6.758	 2.7
  6.764	3.06
 6.7714	2.65
  6.772	2.76
  6.777	2.74
  6.784	2.56
    6.8	2.96
 6.8153	2.68
  6.823	2.62
 6.8406	3.17
  6.844	2.61
  6.848	2.67
  6.852	2.69
 6.8591	2.66
  6.861	2.66
 6.8648	2.78
  6.868	2.72
  6.875	2.74
  6.882	 2.6
  6.889	2.76
  6.896	2.79
 6.9029	2.53
  6.903	2.58
  6.915	2.52
  6.927	2.52
  6.933	2.89
  6.938	2.49
  6.944	2.74
  6.955	 2.8
  6.966	2.49
 6.9663	2.42
  6.971	2.72
  6.984	 2.8
  6.997	2.72
  7.002	2.53
  7.007	2.84
  7.012	2.85
 7.0178	2.45
  7.022	3.09
  7.043	2.51
  7.049	2.63
  7.054	2.71
   7.06	2.56
  7.065	2.82
  7.075	2.48
  7.081	 3.1
  7.082	3.15
  7.083	3.08
 7.0838	 2.5
  7.084	3.01
  7.086	3.07
  7.087	2.68
  7.087	2.46
  7.088	3.05
  7.089	 2.8
   7.09	2.87
  7.092	2.77
  7.094	2.72
  7.095	2.84
  7.095	2.78
  7.097	2.82
  7.099	2.91
  7.101	3.15
  7.103	3.04
  7.103	2.67
  7.105	3.16
  7.107	3.01
  7.109	2.86
   7.11	2.88
  7.112	2.87
  7.115	   3
  7.116	2.85
  7.118	2.83
   7.12	2.82
  7.122	2.76
  7.124	2.96
 7.1246	2.79
  7.127	3.11
  7.128	3.13
   7.13	3.29
  7.132	3.28
  7.134	3.05
  7.136	2.75
  7.138	2.95
   7.14	 2.8
  7.142	3.04
  7.145	3.01
  7.147	3.02
  7.149	3.16
  7.151	3.07
  7.153	3.21
  7.155	3.01
  7.156	2.69
  7.157	 3.1
  7.159	3.17
  7.161	3.11
  7.163	 3.1
  7.165	2.88
  7.165	2.73
  7.167	2.97
  7.169	2.85
  7.172	2.72
 7.1762	2.69
  7.189	2.69
 7.1916	2.69
  7.199	 2.6
 7.2071	2.52
  7.209	2.69
   7.22	2.85
 7.2303	2.41
   7.25	2.54
 7.2535	2.37
   7.26	 2.7
 7.2614	3.22
  7.268	2.85
 7.2767	2.48
  7.277	2.41
  7.285	2.38
  7.294	2.61
 7.2998	2.39
  7.302	2.36
   7.31	2.52
  7.315	2.76
  7.326	2.47
  7.331	2.58
 7.3354	2.45
  7.336	 2.8
  7.342	2.93
  7.347	2.45
  7.353	2.51
 7.3787	2.49
 7.4011	2.67
 7.4018	2.62
 7.4019	2.43
  7.425	2.53
 7.4263	3.12
 7.4839	2.61
 7.4927	2.65
 7.5536	3.01
 7.5536	2.73
 7.5828	2.67
 7.6382	2.45
 7.6869	 2.8
 7.6929	   3
 7.7029	2.65
 7.7355	2.77
 7.8024	3.01
 7.8124	2.83
 7.8396	2.55
 7.8747	2.68
 7.9141	2.55
 7.9436	2.53
  8.011	2.63
  8.016	   3
  8.022	2.93
  8.026	2.77
  8.032	3.01
  8.038	2.98
  8.044	2.96
  8.048	3.07
  8.054	2.93
  8.059	2.96
  8.064	3.01
   8.07	 3.1
  8.075	3.12
 8.1066	2.74
 8.1111	2.38
  8.118	3.02
   8.13	3.04
  8.141	3.62
  8.155	   3
  8.167	2.85
  8.179	3.01
   8.18	2.66
  8.193	3.04
  8.205	3.01
 8.2076	 2.9
  8.216	 2.8
 8.2259	2.63
  8.229	2.93
  8.241	3.24
 8.2421	2.49
 8.2443	2.71
  8.253	3.06
 8.2535	2.72
  8.267	2.63
  8.278	3.05
  8.291	3.17
 8.3006	2.38
  8.301	 3.1
  8.307	   3
 8.3086	2.83
   8.31	3.03
  8.314	2.87
  8.316	2.95
  8.319	2.84
  8.321	2.99
 8.3234	2.45
  8.325	3.02
  8.327	 2.9
   8.33	2.97
  8.335	2.94
  8.339	 2.7
  8.344	2.77
 8.3476	2.43
 8.3803	2.49
 8.3821	2.78
 8.3912	2.71
  8.428	 2.8
 8.4372	2.86
 8.4372	2.84
 8.4831	2.94
 8.4831	2.85
 8.4923	2.83
 8.4941	2.79
 8.5397	2.99
 8.5397	2.68
  8.551	 2.9
 8.5718	2.82
  8.584	2.42
 8.5933	2.76
 8.6079	2.71
 8.6147	2.74
 8.6575	2.92
 8.6575	2.76
 8.6649	2.73
 8.6789	 2.7
 8.6876	 2.9
 8.7111	2.73
 8.7565	2.83
 8.7967	3.07
 8.8284	2.79
 8.8503	2.96
 8.9004	2.85
  8.913	3.06
 8.9151	2.74
 8.9234	2.76
 8.9234	2.74
 8.9442	2.71
 8.9723	2.63
  8.979	2.78
 8.9858	2.71
  8.986	2.63
  8.992	2.62
  8.999	2.71
  9.005	2.74
  9.012	2.61
  9.019	2.58
 9.0202	2.71
  9.025	2.88
  9.031	2.95
 9.0378	   3
 9.0378	3.02
  9.038	2.75
  9.044	2.73
   9.05	2.96
  9.056	2.65
 9.0586	2.62
 9.0586	 2.8
  9.062	2.82
  9.067	2.62
  9.069	2.83
  9.076	2.94
  9.085	2.68
  9.094	2.72
  9.103	2.65
 9.1046	3.01
 9.1046	2.75
  9.112	2.72
  9.121	2.78
 9.1312	2.76
  9.147	2.55
  9.149	3.09
  9.149	3.15
 9.1515	 2.7
  9.154	2.74
  9.161	2.64
  9.167	2.75
  9.172	2.63
  9.178	2.49
  9.183	2.49
 9.1889	2.98
 9.1889	 2.9
 9.1889	2.43
  9.189	2.59
  9.195	2.69
  9.202	2.83
  9.209	3.14
  9.215	 2.9
  9.216	 2.8
  9.224	3.01
  9.232	2.47
   9.24	2.59
 9.2419	3.04
  9.242	2.76
  9.242	2.85
  9.247	 2.7
  9.255	2.42
  9.263	2.73
  9.269	2.61
  9.278	2.81
  9.283	2.74
   9.29	2.59
  9.297	2.72
  9.303	2.91
 9.3084	2.81
 9.3084	2.46
 9.3084	2.62
   9.31	2.79
 9.3102	2.79
  9.317	2.77
 9.3175	3.15
 9.3217	2.98
 9.3217	2.86
  9.324	2.91
  9.331	2.26
  9.337	2.67
  9.343	2.84
  9.348	2.74
 9.3483	2.67
 9.3483	2.73
 9.3488	2.85
  9.354	2.76
 9.3552	2.82
  9.359	 2.8
  9.365	2.57
   9.37	2.67
  9.375	3.01
  9.386	2.92
  9.388	 2.5
 9.3881	 2.6
 9.3898	3.15
  9.392	2.78
  9.397	2.92
  9.398	2.86
 9.4014	2.94
  9.403	2.75
  9.404	2.84
  9.408	2.78
   9.41	3.02
  9.414	2.74
 9.4147	2.62
  9.416	2.98
  9.419	2.79
 9.4211	   3
 9.4228	2.72
  9.425	2.93
  9.428	2.52
  9.431	2.62
  9.435	2.58
  9.437	2.52
  9.442	2.61
  9.447	2.84
  9.454	3.04
  9.461	2.74
  9.462	3.04
  9.463	2.78
  9.469	2.78
   9.47	2.64
   9.47	 2.7
  9.477	2.57
  9.484	2.46
  9.484	2.54
 9.4902	 2.6
  9.492	2.56
 9.4933	3.01
 9.4994	2.66
    9.5	2.81
  9.506	 2.7
 9.5078	2.59
  9.513	2.32
 9.5162	2.69
 9.5162	2.41
   9.52	2.74
  9.527	2.75
 9.5331	2.45
  9.534	 2.8
 9.5342	3.17
   9.54	2.89
 9.5415	 2.8
  9.548	3.62
 9.5499	2.58
  9.555	2.42
 9.5578	2.43
 9.5583	2.75
  9.563	2.91
 9.5655	3.05
 9.5668	2.63
  9.571	2.87
 9.5752	 2.5
  9.579	2.81
 9.5836	2.87
  9.586	2.65
  9.592	3.06
  9.602	2.79
   9.61	 2.6
   9.61	2.69
  9.611	2.42
 9.6168	2.75
  9.617	2.36
 9.6244	2.21
  9.625	2.57
 9.6251	2.57
 9.6287	2.46
  9.631	 2.9
  9.644	2.79
  9.649	2.69
 9.6505	2.72
 9.6505	2.86
  9.655	2.73
   9.66	2.69
  9.666	 2.8
  9.672	2.74
 9.6748	 2.6
  9.677	2.83
 9.6831	2.74
  9.689	2.69
  9.689	2.74
 9.6914	2.76
  9.695	2.49
  9.701	2.57
  9.707	2.72
 9.7106	2.43
  9.712	2.73
  9.718	 2.4
   9.73	2.46
 9.7328	2.63
  9.736	2.77
  9.742	2.76
 9.7481	2.95
 9.7493	2.69
  9.799	 2.7
 9.8156	2.76
 9.8156	 2.5
  9.822	2.26
 9.8404	2.67
 9.8609	2.46
 9.8749	2.84
 9.8818	2.86
 9.8901	2.72
 9.9066	2.63
 9.9149	2.66
 9.9391	2.63
 9.9563	2.63
 9.9563	 2.4
 9.9729	2.75
 9.9894	2.88
 10.006	2.57
10.0226	2.52
10.0226	2.69
10.0226	2.71
10.0308	2.31
10.0408	2.98
10.0557	2.65
10.0562	2.77
 10.064	 2.7
10.0805	2.71
10.0805	2.77
10.0973	2.49
10.1054	2.84
10.1136	2.71
10.1219	 2.6
10.1302	 2.5
10.1302	2.53
10.1385	2.88
 10.155	2.71
10.1676	2.83
10.1732	2.55
10.1799	2.92
10.1882	2.64
10.1964	2.77
10.2461	2.75
10.2461	2.81
10.2903	2.53
10.3206	2.08
10.3289	2.74
10.3289	2.76
10.3335	2.85
 10.345	2.69
10.3455	2.57
10.3538	2.69
10.3538	2.67
 10.362	2.93
10.3786	2.74
10.3869	2.53
10.3869	2.28
10.4117	2.59
10.4284	 2.2
10.4448	2.43
10.4448	2.48
10.4531	2.54
10.4603	2.85
10.4614	2.29
10.4621	2.58
10.4697	2.54
10.4697	2.45
10.5276	2.89
10.5276	2.66
 10.569	2.76
10.5792	2.55
10.6022	 2.6
10.6262	2.85
10.6353	2.72
10.6601	2.58
10.6648	2.29
 10.685	2.77
10.6932	2.65
10.6932	2.72
10.6963	2.39
10.7015	2.55
10.7181	2.68
10.7181	2.38
 10.753	2.63
 10.753	2.79
 10.776	2.81
10.7843	2.55
10.7843	2.49
10.7926	2.34
10.8133	2.25
10.8428	 2.7
10.8517	2.55
10.9013	2.41
10.9029	2.63
10.9047	 2.7
 10.914	2.55
10.9185	2.26
10.9189	2.89
10.9223	2.79
10.9297	2.14
  10.94	2.65
10.9408	2.16
10.9498	2.44
 10.985	 2.5
10.9891	2.17
 10.999	2.74
 11.005	2.68
11.0067	2.84
 11.012	2.56
 11.019	2.34
 11.026	2.38
 11.033	2.54
 11.044	2.52
11.0457	2.72
 11.054	2.68
 11.061	2.57
 11.069	2.19
 11.076	 2.6
 11.084	2.37
 11.084	2.64
 11.092	2.47
 11.092	2.71
11.0951	2.58
   11.1	2.61
 11.107	2.61
 11.112	2.54
 11.118	2.39
 11.123	2.46
  11.13	2.36
11.1377	2.38
 11.139	2.43
11.1393	2.67
11.1395	 2.1
 11.147	2.28
11.1481	2.72
 11.158	2.31
 11.158	2.54
 11.168	2.74
 11.188	2.51
 11.209	2.19
  11.21	2.66
11.2116	   3
 11.224	2.62
11.2299	3.12
  11.23	2.34
 11.238	2.47
 11.245	2.54
11.2454	2.65
 11.253	2.55
  11.26	2.61
11.2631	2.48
 11.267	2.41
 11.274	2.53
 11.281	2.51
 11.288	2.15
11.2896	2.78
  11.29	2.26
 11.295	2.19
   11.3	2.47
 11.305	2.68
 11.309	2.43
 11.314	2.52
11.3161	2.57
11.3161	2.84
 11.319	 2.3
 11.325	2.51
 11.328	2.57
 11.332	2.62
 11.337	2.39
11.3384	2.82
 11.347	2.52
11.3692	 2.3
11.3692	2.53
11.3742	2.51
 11.378	2.83
 11.378	2.86
11.4148	2.18
11.4153	 2.8
11.4412	2.77
11.4431	2.71
 11.449	2.41
11.4551	2.98
11.4613	2.64
11.4639	2.37
  11.47	2.51
11.4774	2.85
 11.482	2.43
 11.482	3.34
11.4885	2.87
 11.489	2.32
 11.489	2.43
 11.489	 3.2
 11.497	3.46
 11.504	 2.4
11.5067	2.66
 11.512	2.43
11.5158	2.74
11.5249	2.66
 11.528	2.58
 11.535	2.59
11.5376	3.19
 11.543	2.71
11.5521	 2.7
 11.557	2.27
 11.572	2.32
11.5869	2.28
 11.588	2.51
11.5976	2.52
11.5976	2.28
 11.599	2.47
 11.605	2.62
11.6106	2.26
 11.612	2.66
11.6124	2.68
11.6157	2.48
11.6157	2.77
 11.618	2.82
 11.629	2.59
 11.639	2.41
  11.65	 2.4
  11.66	2.39
11.6612	2.56
 11.668	2.57
 11.675	2.33
11.6793	2.56
 11.683	2.63
11.6884	2.73
  11.69	2.58
 11.699	 2.8
   11.7	2.67
11.7066	2.76
11.7098	2.13
  11.71	2.83
11.7184	2.94
 11.721	2.41
 11.731	2.79
 11.731	2.47
 11.742	2.72
 11.743	2.53
 11.758	2.37
 11.766	2.35
 11.773	2.37
11.7793	2.68
 11.781	 2.2
 11.788	2.35
11.7955	3.13
11.7975	2.77
11.7975	2.46
 11.802	2.37
 11.811	2.23
11.8157	 2.5
11.8157	2.33
  11.82	2.74
11.8247	2.77
 11.825	2.51
11.8338	2.55
 11.838	2.63
11.8429	2.23
11.8432	2.38
 11.846	2.25
11.8684	2.35
11.8972	2.36
11.8992	3.09
11.9013	 2.4
11.9342	2.54
 11.937	2.24
11.9424	2.38
11.9425	 2.9
 11.943	2.09
11.9507	2.71
 11.953	2.21
11.9574	2.18
 11.958	2.17
 11.963	2.05
 11.968	2.22
  11.97	2.51
11.9715	2.75
 11.973	2.71
 11.978	2.42
 11.982	 2.4
 11.987	2.36
 11.992	2.32
 11.997	2.36
     12	2.27
     12	2.24
 12.001	2.34
 12.005	2.18
12.0081	2.35
12.0083	2.27
  12.01	2.72
  12.01	2.65
  12.01	2.14
 12.014	2.24
 12.019	2.63
  12.02	2.84
  12.02	2.48
  12.02	2.38
12.0249	2.73
 12.027	2.42
  12.03	1.97
12.0332	 2.3
 12.035	2.16
 12.043	2.23
  12.05	2.82
  12.05	2.76
 12.051	2.31
 12.059	 2.4
12.0665	2.46
 12.068	2.43
  12.07	2.18
  12.08	2.76
  12.08	2.31
 12.084	2.16
12.0914	2.59
12.0997	2.55
   12.1	2.46
12.1005	2.52
 12.108	2.55
 12.111	2.48
12.1294	3.08
  12.13	2.37
 12.134	2.43
12.1426	2.48
12.1534	 2.7
  12.17	1.98
  12.17	 2.8
12.1772	2.47
  12.18	2.27
  12.19	2.17
12.1939	2.56
12.2032	2.38
  12.21	 2.3
12.2128	2.43
  12.24	2.25
  12.26	2.29
12.2607	2.84
12.2724	2.44
  12.28	2.27
  12.29	2.51
12.2971	2.58
 12.307	2.54
 12.307	2.67
 12.307	 2.7
  12.31	2.25
  12.31	2.86
  12.33	1.87
 12.333	2.78
12.3498	2.36
  12.36	2.14
  12.36	2.26
12.3813	2.61
  12.39	2.19
  12.39	2.54
   12.4	2.59
12.4001	2.64
12.4084	2.64
  12.41	 2.8
  12.42	2.06
 12.427	2.46
12.4303	2.33
12.4336	2.46
 12.437	2.35
 12.442	2.68
 12.446	2.32
 12.456	2.36
  12.46	2.49
 12.466	 2.6
 12.475	2.33
12.4755	2.67
12.4826	2.44
12.4839	2.68
 12.485	2.52
  12.49	2.42
 12.495	2.38
 12.496	2.49
12.5037	2.39
 12.504	2.25
12.5062	2.56
 12.509	2.49
12.5133	2.49
 12.514	2.18
12.5174	2.68
12.5187	2.87
12.5187	2.99
 12.524	 2.5
12.5286	2.46
  12.53	2.21
  12.53	2.23
 12.533	2.34
  12.54	1.92
  12.54	2.34
12.5426	2.75
 12.543	2.35
12.5432	 2.5
12.5509	2.69
 12.553	2.47
12.5598	2.48
  12.56	2.34
 12.562	2.36
12.5659	2.63
  12.57	2.08
 12.572	2.37
12.5761	2.67
12.5777	2.44
 12.582	2.25
12.5845	2.79
  12.59	2.03
 12.591	2.34
12.5911	2.38
12.5994	2.54
   12.6	2.25
 12.601	2.23
12.6012	2.51
12.6019	2.62
12.6089	2.42
  12.61	2.02
 12.611	2.29
  12.62	2.47
  12.62	2.09
12.6236	2.39
  12.63	2.46
  12.63	2.31
  12.64	1.82
  12.64	2.58
12.6408	2.41
12.6425	 2.6
 12.644	2.53
 12.644	 2.6
 12.649	2.54
  12.65	2.33
  12.65	2.28
  12.65	2.48
  12.65	2.24
  12.65	2.46
 12.656	 2.4
12.6567	2.87
12.6568	2.53
  12.66	1.81
  12.66	 2.4
 12.661	2.37
 12.661	2.79
12.6657	2.42
12.6668	2.32
 12.667	2.26
 12.667	2.41
  12.67	2.23
  12.67	 2.5
  12.67	2.45
 12.672	 2.5
12.6727	2.52
 12.673	 2.5
 12.679	2.28
 12.679	3.15
 12.685	2.46
 12.685	2.61
12.6873	2.53
12.6873	 2.7
12.6874	2.52
  12.69	1.66
  12.69	2.26
  12.69	2.67
12.6906	 2.5
 12.691	2.49
 12.695	 2.6
 12.696	2.25
 12.696	3.18
12.6976	2.47
12.6976	2.56
   12.7	1.96
 12.702	2.19
 12.702	2.42
12.7046	2.41
 12.708	2.47
12.7097	2.32
  12.71	 2.9
  12.71	2.09
12.7103	2.75
 12.714	2.28
 12.714	3.59
 12.718	2.54
 12.719	2.33
 12.719	2.46
12.7206	 2.3
12.7225	2.32
 12.725	 2.3
12.7295	2.49
  12.73	1.94
  12.73	2.56
 12.731	2.19
 12.734	2.36
 12.736	 2.5
 12.741	2.62
 12.742	 2.2
 12.747	2.53
12.7525	2.64
 12.753	2.73
 12.759	 2.5
  12.76	 2.1
  12.76	2.41
  12.76	2.89
12.7662	2.64
12.7662	2.72
  12.77	2.55
  12.77	2.26
12.7724	2.55
12.7724	2.86
 12.776	2.65
  12.78	 2.6
  12.78	2.42
  12.78	2.76
  12.78	2.59
  12.78	3.07
 12.782	2.56
 12.787	2.27
12.7893	 2.6
  12.79	2.61
12.7909	2.53
 12.793	 2.4
 12.799	2.35
   12.8	1.99
   12.8	2.48
   12.8	2.19
   12.8	 2.6
12.8016	2.32
 12.805	2.41
  12.81	2.55
 12.812	2.51
12.8143	2.25
 12.818	2.27
  12.82	2.12
  12.82	2.65
12.8226	2.28
 12.823	2.61
 12.825	2.06
12.8252	2.33
12.8281	2.86
  12.83	2.04
  12.83	2.64
12.8315	2.27
12.8399	2.81
  12.84	2.76
12.8462	2.46
  12.85	2.15
  12.85	2.33
 12.852	2.52
 12.857	2.22
12.8641	2.29
 12.867	2.46
  12.87	2.16
12.8781	2.38
 12.882	2.39
 12.888	2.26
  12.89	2.33
12.8904	2.23
 12.895	2.37
 12.896	2.43
   12.9	2.01
   12.9	2.41
   12.9	2.66
 12.901	2.34
12.9032	2.31
 12.907	2.18
  12.91	2.55
12.9106	2.63
 12.913	2.35
12.9183	2.49
 12.919	2.46
  12.92	2.06
12.9208	2.49
 12.923	2.35
12.9241	2.12
12.9278	2.39
  12.93	2.37
  12.93	2.35
12.9313	2.57
12.9326	2.33
 12.937	2.25
 12.943	2.34
12.9438	2.38
 12.949	2.43
  12.95	2.07
 12.955	2.68
 12.958	2.39
12.9591	 2.7
 12.961	2.53
 12.966	2.47
12.9665	   2
  12.97	1.95
 12.971	2.44
12.9738	2.64
 12.976	2.38
 12.981	2.43
 12.987	2.36
  12.99	1.96
  12.99	2.06
12.9917	 2.5
 12.992	2.43
 12.997	2.46
     13	2.69
     13	 2.5
 13.002	2.37
 13.007	2.33
 13.008	2.32
 13.009	2.65
  13.01	2.46
 13.012	2.33
 13.017	2.24
13.0176	2.31
  13.02	1.95
  13.02	2.41
  13.02	2.46
13.0206	2.35
 13.022	2.29
 13.027	2.13
13.0287	2.57
 13.031	2.19
13.0345	2.23
 13.035	2.42
  13.04	2.12
  13.04	2.43
 13.041	2.49
13.0472	2.07
13.0551	2.26
  13.06	2.07
  13.06	2.41
13.0657	2.21
 13.077	2.29
 13.077	2.12
  13.08	2.36
 13.082	2.17
13.0855	2.12
  13.09	2.24
  13.09	2.37
 13.096	2.38
 13.101	2.61
13.1027	2.17
 13.106	2.25
  13.11	2.87
  13.11	2.25
  13.11	2.38
 13.115	2.07
13.1198	2.42
 13.123	2.23
13.1286	2.37
  13.13	1.74
13.1316	2.34
 13.132	2.64
 13.132	2.22
13.1323	2.34
13.1385	2.11
13.1397	2.22
  13.14	2.93
  13.14	2.69
  13.14	2.29
  13.14	2.41
13.1404	2.31
13.1441	 2.1
13.1487	2.22
 13.149	2.21
 13.149	2.39
  13.15	1.57
  13.15	2.38
  13.15	2.92
13.1533	1.95
13.1556	2.21
13.1574	2.21
13.1579	 2.3
 13.158	2.24
 13.158	2.41
  13.16	2.48
13.1625	2.34
 13.167	2.27
13.1671	2.18
13.1717	2.48
 13.176	2.09
 13.176	2.23
13.1763	2.24
 13.181	2.32
 13.183	2.34
13.1856	2.06
 13.186	2.18
 13.186	2.25
13.1902	2.05
13.1948	2.23
 13.195	 2.1
 13.195	 2.2
13.1994	1.95
   13.2	2.07
   13.2	2.16
13.2007	2.45
 13.203	2.14
 13.203	2.29
 13.204	2.36
13.2086	2.29
 13.209	2.03
 13.209	2.12
  13.21	2.46
13.2132	2.25
 13.215	2.12
13.2178	2.16
  13.22	2.33
 13.221	1.98
13.2224	2.45
13.2248	2.26
13.2266	2.26
 13.227	2.02
13.2271	2.11
  13.23	2.53
13.2317	2.22
 13.233	1.87
13.2358	2.16
 13.237	1.95
13.2394	3.13
13.2395	 2.2
  13.24	1.87
  13.24	2.17
  13.24	2.35
13.2408	2.37
13.2446	2.23
 13.245	2.39
13.2496	2.22
  13.25	2.25
  13.25	2.13
13.2547	1.96
 13.256	2.05
13.2593	2.12
  13.26	2.22
  13.26	2.29
 13.262	2.18
13.2639	2.03
 13.267	2.15
13.2685	2.27
  13.27	2.07
  13.27	2.38
  13.27	2.35
13.2712	2.15
13.2727	2.11
13.2778	2.25
13.2794	2.56
  13.28	2.34
  13.28	2.27
  13.28	2.45
13.2824	2.37
 13.287	1.92
  13.29	1.96
13.2916	   2
13.2939	2.08
13.2957	2.08
13.2962	2.12
   13.3	 2.5
13.3008	2.05
13.3054	1.81
  13.31	2.02
13.3122	2.26
13.3122	2.16
13.3146	1.76
13.3193	2.08
  13.32	1.88
  13.32	2.28
13.3239	1.97
13.3285	2.19
13.3331	1.91
13.3377	2.26
  13.34	 1.9
13.3423	2.06
13.3469	2.26
  13.35	2.88
  13.35	 2.1
13.3515	 2.4
 13.353	2.38
13.3561	2.12
  13.36	2.67
  13.36	1.75
13.3607	2.09
13.3613	2.54
 13.363	2.15
13.3645	2.37
13.3649	2.15
13.3695	2.61
  13.37	1.89
13.3704	2.02
13.3746	1.94
13.3762	2.24
  13.38	1.89
  13.38	2.18
  13.38	2.35
13.3815	2.13
13.3861	1.89
13.3879	1.89
13.3884	2.04
  13.39	 2.8
  13.39	2.23
 13.393	1.91
13.3941	 2.2
13.3976	1.85
   13.4	2.58
13.4045	2.01
13.4068	2.12
  13.41	   2
  13.41	 2.1
  13.41	 2.2
13.4105	2.27
13.4115	2.31
13.4161	2.35
13.4193	2.26
  13.42	2.45
  13.42	2.32
13.4276	2.42
  13.43	2.05
  13.43	2.22
  13.43	2.33
13.4345	2.27
13.4391	2.35
  13.44	2.28
13.4437	2.34
13.4467	2.27
  13.45	2.83
  13.45	2.44
  13.45	2.28
13.4506	2.18
13.4514	2.58
13.4552	2.01
13.4571	2.01
13.4576	 2.1
  13.46	2.12
  13.46	1.97
  13.46	2.07
  13.46	1.81
13.4622	2.22
13.4668	2.14
13.4677	2.21
  13.47	2.42
13.4737	2.19
 13.476	2.17
  13.48	2.03
  13.48	2.42
  13.48	2.24
13.4806	2.09
13.4852	1.99
13.4865	1.87
13.4898	2.22
  13.49	1.95
  13.49	2.26
13.4972	2.36
   13.5	2.93
   13.5	2.33
13.5037	2.45
13.5087	 2.4
  13.51	1.99
  13.51	2.17
13.5129	2.24
13.5189	2.36
 13.519	2.63
  13.52	 2.4
  13.52	2.57
  13.52	2.71
13.5244	2.24
13.5262	2.24
13.5267	2.19
  13.53	2.66
  13.53	1.98
  13.53	2.18
  13.53	2.43
13.5313	2.34
13.5359	2.51
13.5363	2.38
  13.54	2.41
13.5428	2.19
13.5451	2.25
13.5498	2.25
  13.55	2.01
  13.55	2.27
13.5502	2.38
13.5544	2.37
 13.559	2.32
  13.56	2.28
13.5621	 2.5
13.5659	 2.4
  13.57	2.19
  13.57	2.01
13.5728	2.29
13.5774	2.39
13.5793	2.61
13.5793	2.27
  13.58	2.31
  13.58	2.45
  13.58	2.14
 13.582	2.24
13.5879	2.33
13.5889	2.27
  13.59	2.32
13.5936	2.25
13.5954	2.21
13.5954	2.25
   13.6	2.12
   13.6	2.51
   13.6	2.31
   13.6	2.41
13.6013	2.01
13.6144	 1.7
  13.63	 2.4
13.6341	2.06
13.6396	2.34
  13.64	2.33
13.6473	2.21
  13.65	1.97
13.6525	2.18
13.6538	1.74
 13.667	2.08
  13.67	2.46
 13.674	 2.6
 13.674	2.37
 13.674	2.43
13.6801	1.97
13.6959	2.21
   13.7	2.26
13.7064	 2.2
 13.711	2.46
13.7208	2.08
 13.722	2.24
 13.727	1.94
 13.732	2.38
13.7326	2.12
 13.739	2.52
  13.74	 2.4
  13.74	2.26
13.7458	1.95
 13.747	2.49
 13.755	2.37
  13.76	1.99
13.7654	2.31
  13.77	3.13
  13.77	   2
  13.77	2.48
13.7851	2.15
 13.786	2.43
  13.79	2.51
13.7983	   2
  13.81	2.21
  13.81	2.05
  13.81	2.33
13.8114	1.98
13.8195	2.14
13.8272	2.25
  13.83	2.76
  13.84	 2.1
13.8442	1.97
13.8495	1.97
  13.85	1.65
13.8508	1.83
  13.86	2.02
13.8616	2.07
13.8639	2.06
  13.87	1.58
  13.87	1.65
13.8718	1.88
13.8771	1.76
  13.88	 2.4
  13.89	1.87
13.8928	1.66
13.9033	1.56
  13.91	2.02
13.9107	2.93
13.9166	2.04
13.9166	2.19
13.9217	2.01
13.9296	1.48
  13.93	1.62
  13.94	2.49
13.9427	1.52
13.9504	 1.8
13.9559	1.54
13.9677	1.88
  13.97	1.68
  13.98	2.12
13.9899	1.83
  13.99	2.32
  13.99	 1.3
  13.99	1.66
14.0084	1.64
  14.01	2.09
14.0241	1.89
  14.04	2.14
  14.04	1.52
14.0412	1.68
14.0465	1.77
  14.05	1.78
14.0609	1.61
14.0853	2.08
  14.09	1.59
14.0937	1.97
   14.1	2.52
   14.1	1.99
14.1134	1.86
14.1266	2.09
14.1397	1.94
  14.14	2.65
  14.15	1.57
  14.15	1.77
14.1536	 2.6
14.1555	 1.8
14.1591	2.11
14.1591	2.33
 14.166	1.76
14.1791	1.77
  14.18	1.63
14.1922	2.07
   14.2	1.36
14.2053	1.82
  14.22	1.62
14.2224	2.04
14.2434	1.89
  14.25	2.44
  14.25	1.49
14.2789	2.04
  14.28	1.85
14.2868	1.91
  14.29	1.84
   14.3	1.54
14.3038	2.06
14.3047	2.12
14.3091	1.85
  14.31	2.66
  14.31	1.64
  14.32	1.89
14.3235	1.94
14.3275	 1.9
  14.33	1.93
14.3367	1.88
14.3511	2.05
  14.36	1.76
  14.36	 1.7
  14.36	1.83
14.3629	1.88
14.3774	1.78
14.3892	1.73
14.3946	1.44
14.4017	1.93
14.4023	1.88
  14.41	1.84
14.4181	1.76
14.4286	1.88
  14.43	1.76
  14.43	1.55
14.4417	1.91
14.4549	1.56
  14.46	1.46
  14.46	2.06
  14.46	1.98
  14.46	2.13
14.4654	1.77
  14.47	2.05
  14.47	2.06
  14.47	2.14
  14.48	1.64
  14.48	2.19
  14.48	1.95
  14.48	2.04
 14.485	1.76
  14.49	1.62
  14.49	2.04
  14.49	2.13
   14.5	1.47
   14.5	1.98
   14.5	1.81
   14.5	1.84
   14.5	 2.2
14.5008	1.92
 14.502	1.81
14.5021	1.77
14.5061	1.68
  14.51	1.72
  14.51	1.76
  14.52	2.67
14.5205	1.78
14.5231	1.77
14.5297	1.77
  14.53	1.61
  14.53	1.96
  14.53	2.04
  14.54	1.69
  14.54	2.12
  14.54	2.19
14.5428	 1.8
  14.55	1.62
  14.55	1.78
  14.55	1.68
  14.55	1.87
  14.55	2.08
14.5533	1.51
14.5599	1.63
  14.56	 1.6
  14.56	 1.9
  14.56	1.68
  14.56	 1.8
  14.57	0.98
  14.57	1.75
  14.57	 1.4
  14.57	1.54
14.5743	1.48
  14.58	2.57
  14.58	1.55
14.5862	1.55
  14.59	1.64
14.5993	1.44
 14.608	1.62
  14.61	1.52
14.6164	1.71
14.6256	1.84
14.6281	1.82
  14.63	2.53
14.6387	1.85
  14.64	1.63
  14.65	1.54
  14.65	1.95
14.6518	 1.7
14.6557	2.24
14.6676	1.46
  14.68	1.67
14.6833	1.62
14.6978	1.71
   14.7	1.49
 14.703	1.55
 14.703	1.55
14.7096	1.69
14.7201	1.75
14.7251	1.75
 14.736	1.71
14.7372	1.72
  14.74	1.54
  14.74	   2
14.7503	1.44
14.7569	1.74
14.7634	1.78
14.7687	1.76
  14.77	1.58
  14.77	1.45
  14.77	1.73
14.7713	1.55
14.7831	1.67
14.7963	1.71
 14.812	1.62
  14.82	1.59
  14.82	1.72
14.8225	1.57
14.8357	1.58
  14.84	1.75
  14.85	1.68
14.8554	 1.7
14.8685	 1.7
  14.87	1.53
14.8707	1.77
  14.89	1.44
 14.894	 2.3
14.8948	1.68
14.9035	1.39
14.9065	1.74
14.9105	 1.9
 14.916	1.78
14.9161	1.95
14.9173	1.63
14.9195	1.73
 14.923	1.94
 14.925	1.51
 14.926	1.63
  14.93	2.44
  14.93	1.48
  14.93	1.54
  14.93	1.49
  14.93	1.65
14.9305	1.72
14.9335	 1.5
14.9355	 1.6
 14.942	 1.7
14.9455	1.85
 14.949	1.79
  14.95	2.04
14.9535	1.91
 14.958	1.59
  14.96	1.81
14.9605	1.67
14.9665	1.72
14.9677	1.67
14.9705	1.67
 14.979	1.74
 14.983	1.66
14.9855	1.58
14.9905	1.66
 14.998	1.37
     15	1.37
 15.001	1.32
 15.006	1.67
 15.011	1.69
 15.017	1.84
  15.02	1.76
15.0205	 1.6
 15.028	1.65
  15.03	1.89
15.0305	1.98
15.0355	1.83
15.0415	1.54
15.0455	1.44
  15.05	1.74
 15.054	1.95
15.0557	1.81
15.0605	1.74
 15.063	1.69
15.0646	1.79
15.0655	1.61
15.0665	1.87
 15.073	1.53
15.0735	1.69
 15.075	1.53
15.0795	1.59
15.0855	1.77
15.0885	1.75
15.0905	1.83
15.0915	 1.4
 15.098	1.48
15.1132	1.57
  15.14	2.34
15.1819	1.61
15.1896	1.67
  15.19	2.16
15.2031	1.57
15.2038	1.81
15.2059	1.57
15.2119	1.94
15.2119	2.08
15.2249	1.81
15.2355	1.66
  15.24	2.32
  15.26	2.02
15.2645	1.72
15.2815	1.92
15.2878	1.67
  15.29	1.72
15.3089	1.57
  15.31	1.46
15.3118	1.57
15.3308	1.32
  15.34	1.63
15.3513	1.39
15.3558	1.76
15.3642	1.65
15.3711	1.69
15.3936	1.76
 15.397	2.12
15.4148	1.53
15.4177	1.53
15.4339	1.28
  15.44	1.51
15.4528	1.49
15.4572	1.88
15.4769	1.72
15.4995	1.58
 15.502	1.68
15.5112	1.85
15.5207	1.59
15.5235	1.59
15.5296	1.91
15.5313	1.82
15.5348	 1.9
15.5539	1.77
15.5694	2.13
15.5779	   2
15.5984	1.88
15.5984	1.65
   15.6	 1.6
  15.61	2.02
15.6181	2.06
15.6398	1.93
  15.64	 1.7
15.6407	2.08
15.6619	1.54
15.6647	1.67
  15.67	1.38
  15.68	1.66
15.6831	1.55
15.6922	1.84
   15.7	1.73
15.7035	1.91
  15.71	1.24
  15.71	1.38
15.7275	1.92
  15.73	1.97
15.7466	1.72
  15.76	1.98
15.7678	1.22
15.7706	1.22
15.7777	1.93
15.7869	2.28
15.7889	1.99
  15.79	1.46
   15.8	1.41
15.8053	1.86
  15.81	1.61
15.8101	2.02
15.8292	1.99
15.8328	2.06
 15.841	 1.9
15.8525	1.66
  15.87	1.46
15.8736	1.64
15.8765	1.78
15.8885	2.19
15.8913	1.88
15.9064	1.93
15.9089	1.87
  15.91	 1.5
  15.91	1.69
15.9118	1.87
 15.938	1.99
 15.938	2.12
  15.94	1.79
  15.94	2.24
15.9431	 2.1
15.9513	1.74
15.9594	2.44
15.9615	2.08
15.9627	1.93
15.9689	1.82
  15.97	1.43
15.9918	2.35
15.9937	 1.8
     16	1.42
     16	2.13
16.0019	2.33
 16.012	2.26
16.0131	1.94
16.0221	 2.3
16.0249	1.77
16.0325	1.83
 16.035	1.76
 16.035	1.79
  16.04	1.84
16.0493	1.73
  16.05	1.88
16.0523	2.53
16.0551	 1.7
16.0668	1.93
16.0753	2.03
16.0753	 2.1
  16.08	1.96
  16.08	2.02
16.0822	1.88
16.0826	2.04
16.0861	1.86
16.0878	2.08
16.0912	1.75
16.0929	2.03
16.0981	2.02
16.1033	2.17
16.1067	   2
16.1085	2.09
  16.11	1.53
16.1105	1.69
16.1136	2.51
16.1188	2.11
  16.12	1.89
16.1217	1.75
 16.124	2.14
16.1291	2.24
16.1395	2.45
16.1424	1.69
16.1436	2.52
16.1493	1.86
16.1498	2.03
16.1576	1.82
  16.16	2.21
16.1705	2.46
16.1788	2.01
16.1871	 2.3
16.1954	2.11
16.2037	2.14
16.2048	1.84
 16.212	2.16
16.2128	1.66
16.2157	2.05
16.2203	2.21
16.2229	1.61
16.2286	2.21
16.2315	1.61
16.2331	1.85
16.2452	2.09
16.2515	 1.6
16.2535	 2.1
16.2635	2.12
 16.269	1.86
16.2701	1.53
16.2737	1.49
16.2784	2.27
16.2803	 2.2
16.2867	1.64
16.2889	1.63
 16.295	1.76
   16.3	 1.3
   16.3	1.26
16.3014	 1.7
16.3033	1.87
16.3064	1.67
  16.31	1.48
16.3116	1.89
16.3199	1.82
16.3251	1.55
16.3282	1.66
16.3365	1.73
  16.34	1.25
16.3401	1.53
16.3437	1.75
16.3438	1.67
16.3448	2.09
  16.35	1.65
  16.35	1.19
16.3531	1.94
  16.36	1.37
16.3614	2.38
16.3626	1.79
16.3697	1.94
 16.378	2.22
  16.38	1.38
16.3825	1.88
16.3863	1.98
16.3946	1.74
16.3982	1.49
16.3999	1.68
   16.4	 1.8
   16.4	1.73
   16.4	1.59
16.4029	2.25
16.4112	1.77
16.4195	1.88
  16.42	1.57
16.4242	1.74
16.4278	2.17
16.4287	1.57
16.4361	1.91
  16.44	1.54
16.4444	1.65
  16.45	1.49
  16.45	1.32
  16.46	 1.3
16.4634	1.88
16.4645	1.56
  16.47	1.35
16.4721	1.57
 16.479	2.47
  16.48	1.45
16.4877	2.06
  16.49	1.38
16.4963	1.83
   16.5	1.89
 16.505	2.12
16.5054	1.57
  16.51	1.57
16.5136	2.02
 16.515	1.48
  16.52	1.44
  16.52	1.72
16.5223	2.14
16.5226	1.43
16.5309	2.35
16.5396	2.26
  16.54	 1.5
 16.545	 1.8
16.5482	2.35
  16.55	 1.5
16.5569	2.15
  16.56	1.91
  16.56	1.82
16.5733	1.91
16.5742	2.12
  16.58	1.25
16.5889	1.27
  16.59	1.29
16.5915	1.95
  16.61	1.65
16.6117	1.89
16.6255	1.75
  16.63	1.74
16.6308	1.63
16.6347	2.39
16.6434	 1.8
 16.647	1.37
 16.652	1.91
16.6594	1.82
16.6607	2.05
16.6694	2.44
 16.678	2.26
16.6783	1.66
  16.68	1.95
  16.69	1.84
16.6953	2.15
16.7126	2.39
16.7213	1.67
16.7263	1.76
16.7294	1.46
16.7299	2.02
  16.73	1.89
16.7386	1.77
16.7463	1.77
16.7472	1.92
16.7559	2.15
16.7631	1.33
16.7645	2.18
  16.77	2.08
16.7732	2.36
16.7738	1.73
  16.78	1.92
16.7818	2.26
16.7832	2.02
  16.82	1.78
16.8209	1.29
16.8209	1.45
16.8209	2.05
16.8212	1.55
16.8256	1.79
16.8268	1.73
16.8397	1.79
16.8491	1.89
  16.85	1.85
 16.877	2.26
16.8824	2.51
16.8867	2.04
16.8876	1.36
16.8878	2.54
16.8933	2.53
16.8987	2.36
16.9041	2.19
16.9095	2.29
16.9149	2.45
16.9203	 2.4
16.9257	2.37
  16.93	1.48
16.9312	2.47
16.9337	2.08
16.9366	2.31
 16.942	2.38
16.9456	1.28
16.9474	2.47
16.9525	 1.6
16.9528	2.21
16.9567	1.98
16.9582	2.42
16.9637	2.54
16.9691	2.16
16.9711	1.13
16.9745	2.19
16.9799	2.61
16.9808	2.15
16.9853	2.52
  16.99	 1.5
16.9908	2.47
16.9962	2.35
17.0016	2.17
 17.007	2.12
  17.01	1.95
 17.012	1.86
 17.013	2.34
 17.019	2.44
 17.025	2.33
17.0282	2.22
 17.031	 2.6
 17.037	2.41
 17.043	2.48
 17.049	2.36
 17.055	2.35
 17.061	2.46
 17.067	2.16
  17.07	1.84
 17.073	 2.3
 17.079	2.37
 17.085	2.21
17.0863	1.78
  17.09	1.82
 17.091	2.45
 17.097	 2.4
   17.1	2.13
 17.103	2.45
 17.109	2.57
17.1125	1.73
 17.115	2.32
17.1219	1.56
17.1219	 1.8
17.1269	2.59
17.1329	2.67
17.1364	1.68
17.1389	2.58
17.1449	 2.4
17.1489	2.24
17.1509	2.33
17.1569	2.52
17.1629	2.37
17.1689	2.42
  17.17	1.68
17.1749	2.45
17.1809	2.34
17.1869	2.06
17.1929	2.38
17.1945	1.85
17.1989	2.45
17.2049	2.62
17.2065	1.73
17.2109	2.43
17.2169	2.47
17.2229	2.53
17.2232	1.17
17.2289	2.98
17.2295	   2
17.2295	2.15
17.2343	2.66
17.2351	2.02
17.2397	2.64
17.2451	2.67
  17.25	1.42
  17.25	1.46
17.2506	2.53
17.2521	1.87
17.2536	1.86
 17.256	2.53
17.2614	2.64
17.2668	2.62
17.2722	2.55
17.2724	1.88
17.2776	2.35
 17.283	3.05
17.2884	2.18
17.2939	2.53
17.2993	2.36
17.3047	2.15
  17.31	2.35
17.3101	2.41
17.3155	2.53
17.3209	2.44
17.3263	2.14
  17.33	1.86
17.3317	2.33
17.3372	1.87
17.3426	2.16
 17.348	2.08
17.3512	1.82
17.3534	2.86
17.3576	2.08
17.3634	2.46
17.3733	2.49
17.3852	 1.9
17.4032	2.65
17.4132	2.68
17.4231	2.51
17.4331	 2.5
17.4336	2.26
17.4369	 1.9
 17.443	2.16
 17.453	2.13
17.4542	1.95
17.4542	2.13
17.4542	2.06
17.4596	2.22
 17.486	2.82
17.4926	2.24
17.4955	2.14
17.4991	2.51
   17.5	1.74
17.5056	2.66
17.5122	2.49
17.5158	2.25
17.5187	2.55
17.5227	1.94
17.5252	 2.3
17.5317	2.45
 17.532	2.21
17.5383	2.41
17.5448	2.15
17.5495	2.29
17.5538	2.17
17.5573	2.21
 17.558	2.35
  17.56	1.49
17.5606	2.06
17.5665	1.93
17.5708	2.11
 17.575	1.92
17.5793	2.82
17.5818	2.73
17.5827	1.62
17.5882	2.04
17.5972	2.25
17.6117	2.54
17.6175	1.86
17.6191	 2.2
17.6262	2.41
17.6397	 2.1
17.6407	2.65
17.6581	1.84
  17.66	2.07
17.6644	2.16
17.6724	2.26
17.6748	2.29
17.6756	1.82
17.6803	 2.7
17.6882	2.26
17.6961	2.48
 17.704	2.21
17.7119	2.94
17.7199	2.21
17.7207	1.86
17.7247	 2.1
17.7278	 2.5
17.7373	2.53
17.7414	 2.4
17.7419	1.61
17.7436	2.27
17.7515	2.28
17.7581	2.61
17.7595	2.39
17.7642	2.47
17.7674	2.55
17.7677	2.24
17.7712	2.19
17.7731	1.96
17.7747	2.21
17.7749	1.55
17.7753	2.03
17.7782	2.25
17.7814	2.27
17.7817	2.34
17.7826	2.91
17.7852	2.15
17.7887	2.12
  17.79	2.64
17.7918	1.96
17.7973	2.38
17.7992	2.09
   17.8	2.01
17.8016	2.16
17.8016	2.23
17.8027	2.19
17.8046	2.43
17.8097	2.09
17.8119	2.41
17.8132	1.99
17.8166	2.16
17.8193	2.44
17.8236	1.74
17.8266	2.21
17.8299	2.16
17.8328	2.33
17.8357	2.39
17.8386	2.32
 17.839	 2.5
17.8415	2.23
17.8443	2.21
17.8453	 2.7
17.8472	2.24
17.8501	2.34
17.8515	 2.7
 17.853	2.02
17.8559	2.03
17.8577	 2.5
17.8588	1.97
17.8617	2.07
17.8639	2.23
17.8646	2.02
17.8675	2.09
17.8703	2.18
17.8706	2.84
17.8732	2.47
17.8761	2.38
17.8772	2.43
17.8794	2.39
  17.88	1.72
17.8839	 2.6
17.8841	2.34
17.8889	2.19
17.8905	2.41
17.8937	1.86
17.8972	2.62
17.8984	2.05
17.9027	1.87
17.9032	2.32
17.9038	2.35
 17.908	2.29
17.9105	2.51
17.9126	2.07
17.9127	   2
17.9128	2.04
17.9172	2.26
17.9175	1.92
17.9229	 1.9
17.9235	1.95
17.9238	2.55
17.9305	2.11
17.9309	1.75
17.9343	1.95
17.9371	2.23
17.9412	1.98
17.9438	2.08
17.9447	 2.4
17.9481	2.11
17.9482	2.53
17.9516	2.47
17.9524	2.38
17.9551	2.32
17.9567	2.18
17.9586	2.27
17.9609	2.29
 17.962	2.22
17.9652	 2.3
17.9655	2.24
 17.969	2.43
17.9695	2.24
17.9724	 2.1
17.9738	2.52
17.9759	2.03
17.9781	2.11
17.9793	2.03
17.9824	 2.5
17.9828	1.95
17.9863	1.88
17.9866	2.47
17.9897	1.96
17.9909	2.57
17.9932	2.25
17.9952	2.35
17.9967	2.29
17.9995	2.61
18.0002	2.32
18.0043	2.04
18.0054	 2.2
18.0078	 2.1
18.0083	1.87
18.0114	2.34
18.0123	1.82
18.0164	1.71
18.0173	 2.3
18.0204	2.33
18.0233	2.46
18.0245	2.04
18.0285	1.88
18.0292	2.27
18.0315	1.79
18.0325	1.91
18.0328	2.27
18.0352	2.17
18.0366	1.72
  18.04	1.77
18.0406	2.04
18.0423	 2.6
18.0446	2.22
18.0459	2.64
18.0483	2.42
18.0488	2.25
 18.053	2.37
18.0531	1.67
 18.059	2.39
18.0615	1.99
18.0649	2.28
18.0658	1.93
  18.07	1.96
18.0701	1.76
18.0742	 1.7
 18.078	2.11
18.0785	1.96
18.0839	2.19
18.0869	2.14
18.0887	2.06
18.0912	2.19
18.0946	2.19
18.0961	 2.1
18.0993	1.88
18.1018	2.28
18.1046	1.88
18.1072	1.94
18.1073	2.26
18.1077	2.53
18.1099	1.85
18.1126	2.25
18.1137	2.26
18.1149	2.02
18.1196	2.36
18.1232	1.87
18.1236	2.74
 18.125	1.68
 18.125	1.81
18.1285	2.04
18.1287	2.51
18.1338	2.29
18.1347	2.32
18.1391	 2.2
18.1397	 2.7
18.1438	 2.5
18.1444	2.11
18.1488	2.75
18.1498	2.04
18.1505	2.07
18.1548	2.41
18.1551	2.15
18.1599	2.44
18.1604	2.23
18.1636	2.24
18.1649	2.19
18.1664	2.03
18.1691	1.83
18.1699	2.22
18.1718	2.15
 18.174	2.19
18.1746	2.13
18.1773	2.18
 18.179	2.34
  18.18	2.05
18.1828	2.06
 18.185	2.23
18.1855	2.06
18.1882	 2.3
18.1901	2.12
 18.191	2.41
18.1937	2.41
18.1941	 2.2
18.1964	   2
18.1991	2.38
   18.2	1.84
18.2052	2.19
18.2081	2.28
  18.21	1.73
18.2102	2.35
18.2113	2.11
18.2152	2.26
18.2176	2.15
18.2203	2.11
18.2208	1.94
 18.224	1.84
18.2243	2.33
18.2271	1.92
18.2274	1.98
18.2303	2.16
 18.231	2.39
18.2335	2.38
18.2341	2.38
18.2365	2.14
18.2366	2.21
18.2396	2.51
18.2398	 2.4
18.2433	2.12
18.2457	1.96
18.2469	2.19
  18.25	2.36
18.2508	 2.2
18.2531	2.83
18.2555	2.39
18.2564	2.17
18.2565	2.32
18.2586	2.64
18.2622	 2.3
18.2623	2.38
 18.263	1.81
18.2653	2.57
18.2675	2.44
18.2716	2.44
18.2726	2.27
18.2766	1.85
18.2766	1.89
18.2795	 2.5
18.2828	2.29
 18.289	2.33
18.2903	 1.8
18.2927	2.43
18.2969	2.47
 18.297	2.31
18.3048	2.23
18.3056	1.99
18.3089	2.26
18.3111	1.83
 18.312	2.01
18.3127	2.27
 18.315	1.94
18.3181	1.89
 18.319	2.25
  18.32	1.94
18.3235	2.11
18.3242	 2.3
18.3269	2.58
18.3316	2.73
18.3318	2.52
18.3337	2.72
18.3359	2.27
18.3392	2.25
18.3433	2.31
18.3468	2.16
18.3482	2.25
18.3523	2.26
18.3564	2.69
18.3581	2.08
18.3605	2.76
18.3638	2.35
18.3679	2.61
 18.372	2.53
18.3754	2.38
18.3781	2.38
18.3808	2.54
18.3848	 2.5
18.3865	 1.7
18.3882	2.05
18.3884	2.03
 18.391	2.13
18.3916	2.43
 18.395	 2.5
18.3977	2.46
18.3996	2.21
18.4011	2.64
18.4052	2.27
18.4068	1.76
18.4113	2.26
18.4128	1.99
 18.414	2.01
18.4149	 1.9
 18.417	2.14
18.4187	2.09
18.4221	 2.4
18.4222	2.12
18.4222	1.93
18.4255	2.26
18.4282	1.71
18.4289	2.22
18.4302	1.92
18.4316	 2.3
18.4328	 1.8
18.4334	1.69
18.4346	2.29
18.4367	1.81
18.4381	2.45
  18.44	2.03
  18.44	   2
 18.441	 2.8
18.4433	2.31
 18.444	2.62
18.4466	2.32
18.4469	2.49
18.4499	2.54
18.4499	2.12
18.4532	2.16
18.4558	 2.5
18.4565	2.21
18.4598	2.15
18.4631	2.46
18.4635	2.44
18.4665	1.96
18.4703	1.97
18.4731	2.42
 18.474	2.01
18.4777	1.97
18.4814	1.85
18.4828	2.51
18.4851	1.94
18.4852	2.03
18.4888	2.08
18.4924	2.39
18.4926	 2.1
18.4966	   2
18.5006	1.98
18.5018	2.22
18.5046	1.66
18.5065	2.44
18.5086	1.94
18.5122	2.47
18.5126	1.79
18.5166	1.83
  18.52	2.47
18.5206	1.77
18.5239	2.57
18.5246	2.08
 18.527	2.39
18.5286	2.32
18.5309	2.29
18.5321	2.38
18.5343	2.38
18.5356	2.29
18.5365	2.32
18.5388	2.22
18.5395	2.37
 18.541	1.92
18.5426	2.31
18.5442	2.25
18.5465	2.45
18.5476	2.27
 18.551	2.33
18.5524	2.31
18.5545	2.21
18.5585	2.55
18.5613	2.21
18.5646	2.66
18.5706	2.73
18.5729	2.23
18.5755	2.33
 18.577	2.37
18.5816	2.48
18.5853	 2.3
18.5888	2.49
18.5895	2.32
18.5906	2.03
18.5936	 2.3
18.5949	2.63
18.5975	1.96
18.5985	 2.5
18.6012	2.19
18.6031	 2.6
 18.605	2.39
18.6085	 2.5
18.6088	2.57
  18.61	1.92
18.6123	2.39
18.6131	2.71
18.6153	2.34
18.6182	2.28
18.6185	2.46
18.6212	2.43
18.6222	2.38
18.6242	2.49
18.6258	2.38
18.6271	2.28
18.6301	2.28
18.6303	 2.3
18.6321	2.37
18.6331	 2.3
18.6349	2.41
 18.636	2.23
 18.639	2.19
18.6394	2.42
 18.642	2.25
 18.644	2.17
18.6449	2.28
18.6472	2.28
18.6479	 2.1
18.6485	 2.3
18.6508	2.27
 18.653	 2.6
18.6565	2.05
18.6566	2.14
18.6621	2.56
18.6628	1.89
18.6667	2.24
18.6692	2.08
18.6712	2.13
18.6758	 2.6
18.6803	2.52
18.6824	2.35
18.6848	2.59
18.6875	1.85
18.6894	2.65
18.6907	2.09
18.6918	2.06
18.6938	2.06
18.6939	2.25
18.6957	2.18
 18.697	2.26
18.6994	2.63
18.6996	2.11
 18.703	2.24
18.7035	2.08
18.7056	2.28
18.7074	1.75
18.7076	2.57
18.7113	1.93
18.7121	1.74
18.7149	2.23
18.7152	1.95
18.7177	2.41
18.7191	2.16
18.7204	2.24
18.7227	1.76
 18.723	2.01
 18.723	2.46
18.7232	2.29
 18.726	2.02
18.7269	2.49
18.7288	2.46
18.7305	2.48
18.7321	2.07
18.7321	2.24
18.7341	2.24
18.7343	 2.6
18.7371	2.24
18.7376	2.13
18.7412	2.08
18.7427	2.02
18.7448	 2.1
18.7454	1.84
18.7482	2.24
18.7483	2.09
18.7485	2.09
 18.751	2.05
18.7513	2.16
18.7519	   2
18.7539	 1.9
18.7546	 2.3
18.7555	1.97
18.7565	2.41
18.7581	2.17
18.7591	2.19
18.7617	2.62
18.7618	2.13
18.7644	2.11
18.7652	2.36
18.7688	 1.7
18.7688	2.62
18.7724	2.51
18.7731	2.56
18.7742	1.66
18.7759	2.46
18.7768	2.42
18.7795	 2.5
18.7806	1.95
 18.783	2.51
18.7843	2.13
18.7881	1.96
18.7902	 2.4
18.7919	1.72
18.7937	2.35
18.7956	2.19
18.7973	2.58
18.8008	2.65
18.8031	1.95
18.8044	2.69
18.8069	1.92
18.8079	2.51
18.8107	2.28
18.8115	2.55
18.8144	2.12
18.8151	2.45
18.8166	1.97
18.8186	2.34
18.8213	2.05
18.8222	2.57
18.8245	 2.2
18.8257	2.26
18.8277	1.88
18.8293	2.11
18.8327	2.43
18.8341	2.04
18.8341	   2
18.8361	2.82
18.8373	2.32
18.8375	 1.8
18.8396	2.62
18.8406	2.16
 18.843	2.32
18.8438	2.32
18.8464	2.52
 18.847	2.17
18.8498	2.49
18.8502	 2.2
18.8533	2.47
18.8534	 2.1
18.8566	2.13
18.8598	2.02
18.8601	2.47
 18.863	2.17
18.8636	2.38
18.8642	2.07
18.8663	1.99
18.8677	 2.2
18.8704	2.52
18.8738	 1.8
18.8785	2.06
18.8808	2.23
 18.888	2.41
18.8912	2.52
18.8921	2.33
18.8958	2.11
18.8996	2.18
18.9017	 2.8
18.9034	 2.1
18.9052	1.83
18.9071	 1.8
18.9109	1.92
18.9121	2.34
18.9147	1.97
18.9165	2.65
18.9184	1.99
18.9209	2.62
18.9221	   2
18.9253	2.51
18.9258	2.18
18.9295	 2.1
18.9295	2.35
18.9297	2.55
  18.93	2.42
18.9332	2.22
18.9349	2.71
18.9368	2.18
18.9379	2.58
18.9398	2.09
18.9404	2.25
18.9417	2.45
18.9421	1.94
18.9435	2.09
 18.944	2.23
18.9456	2.42
18.9477	2.13
18.9494	2.15
  18.95	1.67
  18.95	1.81
18.9513	2.26
18.9532	2.32
18.9549	2.33
 18.957	2.23
18.9585	 2.4
18.9609	 2.6
18.9622	2.38
18.9647	2.73
18.9661	2.23
18.9685	2.92
18.9699	2.21
18.9728	2.73
18.9738	2.18
18.9771	2.67
18.9776	2.09
18.9814	2.51
18.9815	 2.2
18.9853	2.05
18.9857	2.27
18.9901	 2.6
18.9909	1.85
18.9909	1.89
18.9934	   2
18.9944	 2.4
18.9976	2.18
18.9987	2.32
19.0017	2.16
 19.003	2.35
19.0059	2.36
19.0073	2.96
  19.01	2.23
19.0115	2.43
19.0142	2.04
19.0157	2.58
19.0183	2.17
19.0198	2.49
19.0225	2.16
 19.024	2.42
19.0266	1.96
19.0282	2.69
19.0306	1.98
19.0324	2.47
19.0345	2.18
19.0366	2.72
19.0384	2.29
19.0386	1.84
19.0407	2.46
19.0423	2.47
19.0463	2.45
19.0491	2.66
  19.05	2.56
19.0508	2.28
19.0556	2.08
19.0578	2.63
19.0605	 2.1
19.0625	2.17
19.0625	2.18
19.0653	1.81
19.0656	2.23
19.0665	2.43
19.0701	2.46
19.0728	1.95
19.0749	 2.4
19.0752	2.68
19.0798	 2.6
19.0838	2.45
19.0846	2.69
19.0893	2.73
19.0925	2.63
19.0938	2.54
19.0982	2.37
19.1012	2.56
19.1027	2.27
19.1071	2.24
19.1099	2.42
19.1168	2.85
19.1187	2.44
  19.12	2.18
19.1231	2.56
19.1238	2.83
19.1275	2.54
19.1307	2.54
19.1312	2.58
19.1321	2.05
19.1346	2.28
19.1377	2.53
 19.138	2.18
19.1414	2.01
19.1447	2.46
19.1448	2.02
19.1472	2.07
19.1494	2.22
19.1516	 2.6
19.1516	2.09
19.1538	1.96
 19.156	1.92
19.1572	2.48
19.1582	1.98
19.1604	2.03
19.1626	2.04
19.1648	 2.7
19.1655	2.76
 19.167	2.45
19.1696	1.91
  19.17	2.53
19.1722	1.84
19.1736	2.07
19.1749	1.98
19.1776	2.18
  19.18	2.31
19.1802	2.09
19.1814	2.12
19.1829	1.93
19.1844	2.37
19.1856	1.94
19.1879	2.14
19.1882	2.34
19.1909	2.18
19.1924	2.76
19.1926	 1.8
19.1936	2.28
19.1962	2.39
19.1969	2.43
19.1986	2.27
19.2007	1.98
19.2014	2.48
19.2059	2.53
19.2059	2.29
19.2101	1.61
19.2105	1.88
19.2105	2.67
19.2148	1.92
19.2152	2.56
19.2194	1.98
  19.22	2.49
 19.224	1.59
19.2257	2.55
19.2286	1.81
19.2305	2.24
19.2333	1.87
19.2343	2.43
19.2379	2.39
19.2391	2.36
  19.24	2.22
19.2425	2.45
19.2439	 2.7
 19.246	2.39
19.2493	2.23
19.2495	2.56
19.2511	 1.6
19.2526	2.31
19.2591	2.29
19.2624	2.41
19.2655	2.07
19.2686	 2.4
19.2694	2.25
19.2716	2.12
19.2717	2.13
19.2749	2.27
19.2765	2.14
19.2768	2.56
 19.278	2.12
19.2811	2.35
19.2842	2.38
19.2873	2.62
19.2902	2.06
19.2932	2.34
19.2961	2.17
19.2977	2.54
 19.299	2.19
 19.302	2.13
19.3049	2.26
19.3078	2.16
19.3093	2.61
  19.31	2.14
19.3107	2.25
19.3122	2.79
19.3137	2.41
19.3151	2.92
19.3166	2.46
 19.318	   3
19.3195	2.27
  19.32	 2.5
19.3209	2.69
19.3225	2.25
19.3254	2.36
19.3267	2.67
 19.329	2.73
19.3343	2.46
19.3345	2.74
 19.338	2.14
19.3384	2.64
19.3396	2.46
19.3423	2.62
19.3435	1.85
19.3449	2.25
19.3462	2.81
19.3502	2.37
19.3541	2.77
19.3554	2.42
 19.358	2.74
19.3607	2.13
19.3617	3.03
19.3646	2.89
19.3651	2.66
19.3675	2.11
19.3675	2.57
19.3676	2.64
19.3699	2.43
19.3705	2.83
19.3722	 2.4
19.3729	2.71
19.3746	2.57
19.3764	2.76
 19.377	2.46
19.3794	 2.6
  19.38	2.38
19.3801	2.34
19.3817	2.75
19.3834	2.14
19.3853	3.17
19.3866	2.31
19.3882	2.12
19.3899	 2.2
  19.39	2.24
19.3922	2.22
19.3932	 2.2
19.3961	2.44
19.3965	2.26
19.3998	2.24
19.4001	2.37
19.4031	2.22
 19.404	2.44
19.4051	1.94
19.4064	2.31
 19.408	2.39
19.4097	2.34
 19.412	2.79
 19.413	2.52
19.4159	2.64
19.4163	2.45
19.4192	2.13
19.4195	2.33
19.4207	2.72
19.4228	2.34
19.4246	2.41
19.4261	 2.4
19.4271	2.27
19.4282	2.42
19.4298	 2.4
19.4312	2.58
19.4339	2.76
19.4357	 2.5
19.4403	2.53
19.4447	2.59
19.4478	2.61
  19.45	2.42
 19.451	2.67
19.4513	2.68
19.4541	2.56
19.4557	2.23
19.4571	2.88
19.4572	2.44
19.4591	2.24
19.4603	2.45
19.4629	2.58
19.4634	2.38
19.4665	2.33
19.4696	2.21
19.4698	2.85
19.4727	2.48
19.4756	2.81
19.4758	 2.2
19.4789	2.14
19.4814	2.84
 19.482	2.19
19.4851	2.25
 19.486	2.75
19.4882	2.41
19.4911	2.38
19.4938	2.14
19.4966	2.16
19.4993	2.04
 19.502	2.13
19.5033	2.56
19.5048	1.93
19.5048	2.23
19.5075	1.94
19.5103	1.69
19.5132	1.88
19.5144	2.17
19.5157	1.58
19.5161	2.29
19.5185	 1.6
19.5208	 2.5
19.5212	1.86
 19.524	2.23
19.5266	2.38
  19.53	2.41
  19.53	2.65
19.5325	 2.5
19.5338	2.32
19.5374	2.16
19.5383	2.46
19.5409	2.13
19.5444	 2.1
19.5479	2.22
19.5515	 2.1
 19.555	2.04
19.5559	2.12
19.5585	2.13
 19.562	2.15
19.5656	2.18
19.5676	 2.4
19.5691	2.42
19.5735	2.75
19.5762	2.38
19.5793	2.33
19.5797	2.36
19.5832	2.23
19.5852	2.44
19.5867	2.02
  19.59	2.41
19.5938	2.04
19.5969	 2.5
19.5976	2.35
19.6013	1.78
19.6028	2.26
19.6087	2.36
19.6126	1.74
19.6145	2.26
19.6145	2.53
19.6163	1.67
19.6204	2.34
19.6238	1.93
19.6262	2.33
19.6329	2.29
19.6363	2.41
19.6365	1.78
  19.64	2.37
19.6405	2.05
19.6423	1.78
19.6447	1.98
19.6482	2.22
19.6488	2.39
19.6519	1.92
 19.653	1.89
19.6538	2.06
 19.657	2.22
19.6571	2.02
19.6572	1.91
19.6603	2.25
19.6614	2.59
19.6635	 2.5
19.6651	2.31
19.6668	2.05
19.6688	2.45
19.6701	2.17
19.6733	2.57
19.6733	2.15
19.6762	2.69
19.6766	2.13
19.6799	2.67
19.6799	2.22
19.6831	 2.2
19.6836	2.95
19.6871	2.26
19.6881	2.83
 19.691	2.91
19.6915	2.18
19.6959	1.81
19.6984	2.92
19.7003	 1.8
19.7022	2.76
19.7047	1.76
19.7059	2.45
19.7091	1.88
19.7103	2.44
19.7108	1.89
19.7133	2.72
 19.717	2.58
  19.72	2.63
19.7207	2.32
19.7244	2.46
19.7281	2.76
19.7318	2.78
19.7338	1.73
19.7364	2.71
 19.741	2.69
19.7447	1.78
19.7456	2.65
19.7511	2.62
19.7523	1.98
19.7523	2.03
19.7548	2.53
19.7573	2.29
19.7593	2.32
19.7607	 2.3
19.7639	 2.4
19.7674	2.35
19.7685	2.31
19.7708	2.34
19.7731	2.62
19.7742	 2.6
19.7776	2.47
19.7777	 2.5
 19.781	2.32
19.7823	2.58
19.7843	2.58
19.7869	2.61
19.7877	2.33
19.7911	2.33
19.7915	2.28
 19.797	1.98
19.7998	2.26
   19.8	2.26
19.8045	2.34
19.8069	2.22
19.8087	2.49
19.8089	2.11
19.8105	2.28
19.8129	2.36
 19.814	2.38
19.8171	2.11
19.8176	2.59
19.8211	2.52
19.8213	1.98
19.8251	1.94
19.8282	2.39
19.8283	1.96
19.8316	1.98
19.8324	2.28
19.8348	2.02
19.8353	2.35
19.8388	2.37
19.8395	 1.9
19.8455	1.79
19.8459	2.44
19.8495	2.69
19.8516	1.81
 19.853	2.69
19.8601	2.32
19.8637	2.29
19.8672	 2.3
19.8682	1.79
19.8698	 2.1
19.8743	2.43
19.8758	 2.1
19.8759	1.89
19.8775	2.36
19.8791	2.09
19.8821	2.19
19.8828	2.32
19.8851	2.18
19.8881	2.17
19.8884	2.23
19.8911	1.98
19.8941	1.86
 19.895	2.31
19.8955	2.36
19.8971	1.98
19.9019	1.99
19.9026	2.54
19.9043	 1.8
19.9066	1.76
 19.909	1.68
19.9097	 2.1
19.9113	1.67
19.9137	1.78
 19.916	1.74
19.9168	   2
19.9187	1.61
  19.92	2.52
19.9204	2.29
19.9241	2.37
19.9277	2.47
19.9314	2.35
19.9341	2.13
 19.935	2.58
19.9372	1.94
19.9387	2.72
19.9403	1.75
19.9423	2.51
19.9433	1.75
 19.946	2.47
19.9464	 1.8
19.9496	2.64
19.9508	1.88
19.9532	2.58
19.9553	1.92
 19.956	1.94
19.9569	2.41
19.9597	1.73
19.9605	2.38
19.9641	1.76
19.9642	2.42
19.9678	2.37
19.9685	1.71
19.9751	2.54
19.9788	2.35
19.9817	2.28
19.9824	2.51
19.9854	1.88
19.9861	2.21
19.9862	 2.1
19.9897	2.37
19.9902	2.21
19.9902	2.27
19.9934	1.93
 19.995	1.78
 19.997	1.86
19.9986	1.85
 20.002	2.48
20.0021	1.63
20.0031	2.44
20.0056	1.78
20.0081	2.54
20.0091	1.74
20.0126	1.82
20.0132	2.49
20.0172	2.34
20.0199	2.32
20.0202	1.67
20.0222	2.08
20.0237	2.18
20.0275	1.88
20.0283	2.22
20.0298	1.99
20.0314	 1.9
20.0329	2.17
20.0334	1.92
20.0352	1.78
 20.036	1.82
20.0384	2.21
 20.039	1.57
20.0391	1.84
20.0419	1.91
20.0423	1.86
20.0435	2.13
20.0447	1.65
20.0454	1.66
20.0474	1.43
20.0475	2.04
20.0485	1.82
20.0516	1.76
20.0525	1.89
20.0525	1.43
20.0548	1.78
20.0586	2.12
20.0637	1.97
20.0653	 2.6
20.0677	2.08
20.0678	2.03
20.0687	2.22
20.0722	1.96
20.0727	2.38
20.0757	   2
20.0778	1.57
20.0792	1.96
20.0813	2.46
20.0828	2.03
20.0843	2.17
20.0864	2.03
20.0872	2.29
20.0896	2.28
  20.09	2.22
20.0932	2.45
20.0935	 2.2
20.0961	2.33
20.0973	   2
20.0985	2.76
20.0997	1.67
20.1004	 2.1
20.1014	2.21
20.1031	 2.2
20.1044	2.43
20.1073	2.63
20.1099	2.07
20.1103	2.25
 20.113	1.83
20.1138	2.64
20.1162	1.68
20.1168	1.83
20.1193	1.91
20.1225	2.05
20.1256	2.08
20.1259	2.27
20.1305	2.11
20.1329	2.24
20.1341	 2.2
20.1387	2.12
20.1432	2.05
20.1478	1.85
20.1523	1.87
20.1578	1.68
20.1615	2.23
20.1645	2.13
20.1682	2.24
  20.17	2.63
20.1757	2.71
20.1794	2.55
20.1832	2.61
20.1869	2.42
20.1914	2.62
20.1959	2.38
20.1989	 2.5
20.1999	2.22
20.2019	2.39
 20.204	2.13
20.2063	2.46
20.2066	2.15
20.2071	2.04
20.2101	2.37
20.2102	1.91
20.2133	2.09
20.2138	2.66
20.2164	2.24
20.2168	2.71
20.2195	2.09
20.2226	1.96
20.2257	1.92
20.2273	2.37
 20.228	2.25
 20.228	2.25
20.2288	   2
20.2347	1.91
 20.236	2.44
20.2371	1.79
20.2396	1.95
20.2421	2.02
20.2446	1.93
20.2448	2.37
20.2471	2.25
20.2495	1.86
20.2535	2.54
20.2545	 1.9
 20.257	1.88
20.2594	1.78
20.2623	2.49
20.2693	2.25
20.2693	2.14
  20.27	2.09
20.2727	1.68
20.2795	1.71
20.2798	 2.2
 20.283	 1.7
20.2837	1.99
20.2849	2.24
20.2864	1.62
20.2898	1.64
  20.29	2.29
20.2932	1.75
 20.294	 2.3
20.2959	2.16
20.2966	1.74
20.2991	2.42
   20.3	1.83
20.3003	1.73
20.3019	1.87
20.3034	1.96
20.3065	1.98
20.3096	1.62
20.3103	2.23
20.3126	1.61
20.3154	2.39
20.3157	1.61
20.3188	 1.8
20.3195	2.23
20.3218	1.52
20.3232	2.06
20.3232	 2.2
20.3246	2.24
20.3249	1.55
20.3297	2.53
20.3358	2.54
20.3371	1.92
20.3387	2.41
20.3395	2.38
20.3402	2.12
20.3453	2.09
20.3461	2.31
20.3477	1.97
20.3498	2.31
20.3501	1.79
20.3524	1.72
20.3534	2.21
20.3548	1.88
20.3571	2.36
20.3572	   2
20.3595	   2
  20.36	2.26
20.3608	1.95
20.3617	1.94
20.3636	1.99
 20.366	1.92
 20.368	2.46
20.3681	1.89
  20.37	2.31
20.3703	2.02
20.3708	2.15
20.3724	2.01
20.3775	1.81
 20.381	   2
20.3824	2.71
20.3845	1.94
20.3853	2.24
20.3879	2.06
 20.391	1.93
20.3914	1.76
20.3968	 1.7
20.3984	1.73
20.4018	1.73
20.4035	 1.9
20.4053	1.87
20.4088	1.87
20.4101	2.07
20.4157	1.81
20.4168	2.74
20.4192	1.81
20.4227	1.64
20.4246	 2.2
20.4269	1.53
20.4299	2.33
20.4319	1.71
20.4325	2.16
20.4369	1.57
  20.44	2.21
  20.44	2.55
20.4403	2.07
20.4419	1.71
20.4459	1.45
20.4489	1.55
20.4501	2.28
20.4519	1.63
20.4549	1.53
 20.456	2.31
20.4579	1.83
20.4609	1.87
 20.464	2.02
20.4654	2.32
 20.467	1.79
20.4701	1.77
20.4717	2.41
20.4732	 1.7
20.4762	1.85
20.4793	 1.8
20.4796	2.16
20.4824	1.72
20.4835	2.06
20.4835	 2.1
20.4874	1.88
20.4946	1.91
20.4953	2.38
20.5008	1.77
20.5031	2.28
20.5038	1.72
20.5069	1.63
  20.51	3.02
20.5103	1.77
20.5109	2.27
20.5139	1.81
20.5176	 1.7
20.5188	 1.9
20.5213	1.91
20.5249	1.93
20.5252	2.38
20.5256	2.04
20.5281	2.36
20.5286	2.03
20.5316	2.37
20.5317	2.21
20.5318	2.22
20.5343	2.23
 20.537	2.04
20.5392	2.83
20.5396	2.03
20.5422	 1.8
20.5443	 2.2
20.5448	2.09
20.5468	1.99
20.5474	2.13
  20.55	2.18
20.5507	2.69
20.5526	1.63
20.5552	1.89
20.5571	2.71
20.5578	1.95
20.5604	2.01
20.5648	2.22
20.5655	2.11
20.5699	2.65
  20.57	2.97
20.5707	1.99
20.5758	2.14
20.5763	2.51
20.5809	1.77
20.5826	2.21
20.5851	2.32
20.5886	2.26
 20.589	2.41
 20.592	2.07
20.5954	2.12
20.5975	2.17
20.5988	2.15
20.6018	1.59
20.6022	2.16
20.6056	2.12
20.6069	2.62
20.6091	1.98
 20.612	1.86
20.6125	2.14
20.6159	2.06
20.6171	2.43
20.6193	2.21
20.6222	 1.9
20.6227	 2.3
20.6258	2.36
20.6273	2.36
20.6285	 2.5
20.6312	2.48
20.6325	2.43
 20.634	1.92
20.6367	2.42
20.6376	2.79
20.6394	2.38
  20.64	   3
20.6421	2.27
20.6448	2.25
20.6476	2.24
20.6478	2.58
20.6503	2.24
 20.653	1.91
20.6554	2.73
20.6557	2.33
20.6564	2.72
20.6584	2.27
20.6604	2.76
20.6622	2.33
20.6661	2.25
20.6667	2.82
20.6699	2.11
20.6731	2.74
20.6737	2.02
20.6794	 2.8
20.6813	2.21
20.6851	2.19
 20.688	2.05
 20.692	2.81
20.6927	1.94
20.6965	2.11
20.6999	2.25
20.7028	2.32
20.7046	2.52
20.7058	1.95
  20.71	 2.4
20.7117	2.07
20.7146	2.17
20.7175	1.94
20.7198	1.56
20.7205	2.21
20.7226	2.23
20.7234	2.29
20.7278	1.75
20.7299	2.45
20.7322	1.81
20.7352	2.09
20.7362	2.75
20.7381	2.12
20.7406	1.66
 20.741	2.08
20.7425	2.52
20.7443	2.07
20.7488	2.67
20.7502	2.38
20.7534	2.08
20.7552	2.53
20.7566	1.98
20.7598	1.86
20.7615	2.34
 20.763	1.74
20.7662	1.88
20.7678	 2.1
20.7708	2.57
20.7726	1.65
20.7752	 2.3
20.7776	1.96
20.7826	2.36
20.7827	1.84
20.7847	2.19
20.7878	2.02
20.7887	2.05
  20.79	2.08
20.7934	1.66
20.7989	1.98
   20.8	2.58
20.8048	1.68
20.8059	 1.7
20.8121	1.87
20.8137	2.08
20.8184	1.88
20.8197	2.35
20.8246	1.81
20.8271	2.08
20.8345	1.99
20.8397	1.74
20.8434	 2.3
20.8484	1.65
20.8508	1.49
20.8556	2.36
 20.857	1.82
  20.86	2.07
 20.862	2.02
20.8657	1.97
20.8689	2.31
20.8744	1.83
 20.881	2.58
20.8829	1.82
20.8868	1.94
20.8888	1.74
20.8918	2.35
20.8948	1.95
20.8991	2.63
20.9008	1.92
20.9051	 3.2
20.9068	2.18
  20.91	3.12
20.9106	2.53
20.9128	1.95
 20.915	2.42
20.9188	1.99
  20.92	2.62
20.9205	2.16
20.9248	2.18
20.9258	2.17
 20.926	2.54
20.9308	2.23
20.9356	2.14
20.9436	2.76
20.9487	 1.9
20.9491	3.34
20.9547	2.36
20.9547	 2.1
20.9607	1.97
20.9655	 2.2
20.9659	2.25
  20.97	2.59
20.9721	2.17
20.9727	2.21
20.9816	2.22
20.9879	2.31
  20.99	2.51
  20.99	2.23
20.9957	2.28
21.0005	2.11
21.0014	1.94
21.0075	2.25
21.0109	2.58
 21.014	2.16
21.0193	 2.6
21.0205	2.18
21.0235	2.28
 21.027	2.16
  21.03	2.51
21.0319	3.54
21.0335	2.08
21.0387	2.03
21.0411	2.61
21.0476	2.08
21.0504	2.94
21.0566	2.22
21.0578	2.36
  21.06	   2
21.0626	1.91
21.0656	2.28
21.0728	2.38
21.0835	2.17
21.0855	2.75
  21.09	2.35
21.0925	1.98
   21.1	2.36
21.1015	1.92
21.1058	3.64
21.1136	   2
21.1155	 2.7
21.1183	1.87
21.1252	2.49
21.1269	1.89
21.1331	2.12
21.1349	2.65
21.1388	2.55
21.1436	2.47
21.1478	2.11
21.1494	2.56
21.1517	2.02
21.1565	2.18
21.1591	2.28
21.1595	1.92
21.1643	2.56
21.1688	 1.9
21.1697	2.53
  21.17	2.48
 21.173	2.79
21.1758	1.96
21.1771	1.67
21.1818	2.78
21.1914	2.28
21.1941	2.11
21.1981	2.11
 21.201	1.14
21.2014	1.93
21.2025	1.83
21.2051	1.92
21.2075	3.36
21.2081	2.01
21.2114	2.02
21.2125	2.58
21.2148	2.21
21.2181	2.28
  21.22	2.23
21.2214	 2.3
21.2214	2.24
21.2248	2.18
21.2264	   2
21.2284	1.94
21.2323	1.98
21.2324	2.71
21.2362	1.92
21.2373	2.44
  21.24	1.96
21.2423	2.42
21.2434	2.37
21.2439	 1.7
21.2463	1.97
21.2478	1.72
21.2517	1.61
21.2552	2.37
21.2556	 1.9
21.2595	1.96
21.2631	2.06
21.2665	1.95
21.2699	1.81
21.2733	1.68
21.2767	1.67
  21.28	1.69
21.2868	1.73
21.2902	1.78
21.2936	1.79
21.2942	2.06
 21.297	1.93
   21.3	2.67
21.3004	2.08
21.3041	2.05
21.3071	2.28
21.3101	2.04
21.3138	2.28
21.3172	1.93
21.3205	1.72
21.3239	1.73
21.3273	1.82
21.3306	1.73
21.3322	 2.1
21.3332	1.96
21.3343	1.87
21.3373	1.83
21.3407	1.81
 21.344	1.69
21.3474	1.76
  21.35	2.23
21.3508	1.91
21.3541	1.69
21.3567	2.74
21.3573	1.87
21.3606	1.63
21.3617	 2.6
21.3632	1.68
21.3671	1.84
21.3672	2.02
21.3704	1.81
 21.373	2.56
21.3736	2.03
21.3769	2.17
21.3788	2.57
21.3801	 2.2
21.3834	2.68
21.3834	2.24
21.3867	2.23
21.3892	3.11
21.3899	2.09
  21.39	2.58
21.3932	2.22
21.3941	2.11
21.3941	2.16
21.3962	2.65
21.3965	2.07
21.3997	2.02
 21.402	2.32
 21.403	1.95
21.4062	 2.1
21.4078	2.74
21.4095	1.71
21.4128	1.86
21.4131	2.13
21.4136	2.54
 21.416	2.04
21.4193	2.06
21.4225	2.14
21.4252	 2.5
21.4258	2.12
21.4291	1.93
21.4296	2.02
21.4323	1.89
 21.434	2.12
21.4356	1.92
21.4375	2.27
21.4388	1.89
21.4388	1.57
  21.44	2.41
21.4421	1.93
21.4453	1.95
21.4463	2.26
21.4486	 1.9
21.4507	2.45
21.4519	1.71
21.4551	1.81
 21.456	2.24
 21.458	1.79
21.4616	1.62
21.4639	2.46
21.4649	1.99
21.4681	 1.7
21.4683	2.34
21.4718	2.07
21.4727	2.03
21.4758	2.01
21.4798	1.69
21.4815	2.36
 21.483	1.66
21.4878	1.68
21.4903	 1.8
21.4918	1.63
21.4958	1.69
21.4998	1.78
   21.5	2.16
21.5038	1.74
21.5066	2.17
21.5069	1.88
21.5094	1.82
21.5118	1.77
21.5143	1.67
21.5167	2.05
 21.517	1.61
 21.519	1.64
21.5211	2.15
21.5217	1.64
21.5255	1.95
21.5266	1.66
21.5286	1.68
21.5299	1.96
21.5316	1.63
 21.534	1.58
21.5347	2.08
21.5365	1.65
 21.539	1.41
21.5394	2.53
21.5414	1.87
21.5441	1.86
21.5469	1.83
21.5497	1.75
21.5525	1.65
21.5537	2.38
21.5553	1.67
21.5573	1.68
21.5585	2.45
  21.56	 1.9
21.5609	 1.7
21.5632	2.17
21.5637	 1.8
21.5665	 1.8
 21.568	2.49
21.5693	1.84
21.5721	1.91
21.5728	2.53
21.5749	1.94
21.5775	2.64
21.5777	1.88
21.5798	1.52
21.5811	 1.9
21.5813	2.16
21.5823	2.65
21.5833	1.62
21.5863	1.96
 21.587	2.52
21.5895	2.08
21.5927	2.48
21.5927	 1.9
21.5953	1.74
21.5975	2.35
21.5991	1.73
   21.6	1.61
21.6013	2.29
21.6023	1.44
21.6055	1.43
21.6061	2.24
21.6087	1.65
21.6089	2.14
21.6119	1.72
 21.614	2.41
21.6141	1.82
21.6156	2.37
21.6183	1.75
21.6193	2.25
21.6215	1.49
21.6229	2.37
21.6246	1.44
21.6266	2.12
21.6278	1.57
21.6303	2.23
21.6311	1.63
21.6344	1.77
21.6346	1.77
21.6376	1.96
21.6378	1.44
  21.64	2.06
  21.64	2.06
21.6411	1.28
21.6412	1.93
21.6444	1.28
21.6449	1.79
21.6478	1.39
21.6502	2.88
21.6511	1.73
21.6544	1.81
21.6556	2.56
21.6578	1.67
21.6609	2.63
21.6611	1.67
21.6637	1.88
21.6662	2.68
21.6676	 1.7
21.6708	1.67
21.6741	1.64
21.6773	 1.6
21.6806	1.66
21.6839	1.66
21.6871	1.61
21.6894	2.09
  21.69	2.01
21.6904	1.62
21.6936	1.67
21.6969	1.59
21.6995	1.62
21.7035	2.14
21.7048	1.71
21.7081	1.69
21.7088	2.15
21.7141	1.83
21.7156	1.53
21.7195	1.94
21.7206	1.35
21.7248	 2.1
21.7248	1.37
21.7288	1.45
21.7301	   2
21.7327	1.68
21.7366	1.59
21.7406	1.48
21.7441	1.39
21.7445	1.53
21.7483	2.38
21.7484	1.66
21.7484	1.64
21.7524	1.66
21.7525	1.66
21.7564	1.46
21.7609	1.83
21.7623	2.16
21.7623	2.16
21.7651	1.95
21.7762	1.52
21.7799	1.66
  21.78	2.09
 21.782	2.02
21.7835	1.93
21.7862	2.33
21.7871	 1.9
21.7904	2.17
21.7907	1.85
21.7943	1.63
21.7946	2.54
21.7972	1.59
21.7974	1.95
21.7988	2.17
21.8015	 1.8
 21.803	2.35
21.8052	1.74
21.8088	1.81
21.8124	1.74
 21.816	1.56
21.8196	1.87
21.8233	1.85
21.8269	 1.9
  21.83	 2.1
21.8306	1.94
21.8343	1.79
 21.838	1.74
21.8397	2.11
21.8416	1.82
21.8433	1.94
21.8453	1.84
 21.849	1.75
21.8515	1.68
21.8559	1.77
21.8593	1.86
21.8631	1.98
21.8661	1.88
21.8694	2.02
21.8728	1.92
21.8761	1.92
21.8788	2.47
21.8794	1.88
21.8828	1.91
21.8831	2.31
21.8861	1.85
21.8893	1.88
  21.89	 2.2
21.8915	2.43
21.8926	1.82
21.8957	2.38
21.8959	1.91
21.8991	1.98
21.9007	2.54
21.9014	1.87
21.9043	 2.1
21.9055	1.77
21.9067	1.87
21.9092	1.91
21.9116	1.77
21.9134	2.31
 21.914	 1.8
21.9176	2.32
21.9191	1.73
21.9218	2.21
 21.922	1.75
21.9248	 1.9
21.9277	1.95
  21.93	2.29
21.9305	1.94
21.9333	1.87
21.9337	2.63
21.9362	1.99
21.9375	2.54
 21.939	2.22
  21.94	2.11
21.9413	2.64
21.9415	2.19
 21.945	2.66
21.9459	1.96
21.9488	2.62
21.9495	1.81
21.9526	2.56
21.9531	1.88
21.9564	2.49
21.9567	1.75
21.9601	2.41
21.9603	1.79
21.9631	2.31
21.9639	1.83
21.9675	1.88
21.9677	2.23
21.9707	2.56
21.9712	1.86
21.9748	1.83
21.9752	2.34
21.9784	1.83
 21.979	2.46
 21.982	1.82
21.9856	1.92
21.9863	1.73
21.9873	2.46
21.9895	1.97
21.9903	2.35
21.9937	1.84
21.9941	2.23
21.9971	1.73
22.0016	2.11
22.0021	1.51
22.0058	1.61
22.0063	2.06
22.0063	1.56
22.0101	1.62
22.0107	2.41
22.0134	 1.7
22.0168	1.79
22.0201	1.79
22.0225	2.34
22.0234	1.79
22.0268	1.75
22.0279	2.49
22.0289	1.91
22.0301	1.95
22.0332	1.84
22.0333	2.45
 22.036	 1.9
22.0389	1.71
22.0418	1.98
22.0441	2.34
22.0443	2.29
22.0446	1.81
22.0469	1.93
22.0509	1.87
22.0532	1.92
22.0561	1.94
22.0581	 2.5
 22.059	1.85
22.0595	1.78
22.0618	1.85
22.0647	1.72
22.0676	 1.5
22.0704	1.73
22.0932	2.32
22.0934	1.88
22.0963	1.54
22.0991	1.36
 22.102	1.53
22.1055	1.58
22.1092	2.17
22.1097	1.56
22.1131	1.67
22.1181	1.66
22.1217	2.25
22.1223	1.46
22.1259	1.54
22.1274	2.34
22.1299	1.61
 22.132	2.22
22.1336	2.08
22.1373	2.02
  22.14	2.46
22.1402	1.98
22.1409	1.97
 22.144	2.48
22.1446	1.87
22.1482	 2.1
22.1485	1.93
22.1515	2.08
22.1517	2.23
22.1541	2.13
22.1587	 1.9
22.1622	2.06
22.1657	2.09
22.1685	2.05
22.1727	2.11
22.1762	2.17
22.1797	2.16
22.1832	2.15
22.1867	2.02
  22.19	2.58
22.1902	2.06
22.1937	2.09
22.1972	2.08
22.2006	2.04
22.2041	1.77
22.2076	1.73
22.2077	2.22
 22.211	 1.8
22.2145	1.81
22.2152	2.53
 22.218	1.94
22.2207	1.95
22.2227	2.53
22.2246	2.11
22.2264	2.62
22.2278	2.07
  22.23	2.47
22.2314	2.21
22.2342	2.18
22.2374	2.07
22.2409	2.09
22.2422	2.71
22.2444	2.64
22.2477	2.09
22.2489	 2.7
22.2511	1.93
22.2527	 2.3
22.2546	2.01
22.2572	2.71
 22.258	2.15
22.2594	2.56
22.2614	1.99
 22.263	1.94
22.2639	 2.8
22.2649	2.25
22.2676	2.61
22.2683	2.23
22.2714	2.56
22.2717	2.04
22.2751	2.34
22.2751	2.13
22.2784	   2
22.2789	2.67
  22.28	2.37
22.2818	2.09
22.2819	2.55
22.2851	1.71
22.2864	2.39
22.2883	1.89
22.2901	2.35
22.2914	1.95
22.2935	 1.7
22.2939	2.75
22.2945	1.98
22.2975	1.98
22.2976	2.65
22.3006	2.02
22.3014	2.72
22.3037	2.09
22.3051	2.22
22.3068	 2.1
22.3089	2.42
22.3099	2.12
22.3126	2.69
22.3129	2.24
22.3159	2.15
22.3164	2.54
22.3183	2.01
22.3194	 2.4
22.3219	1.81
22.3239	2.41
22.3276	2.04
22.3279	1.83
22.3309	1.79
22.3338	2.57
22.3339	1.98
22.3341	2.06
22.3369	1.93
22.3399	1.99
  22.34	2.54
  22.34	2.34
22.3429	2.05
22.3462	2.78
22.3464	2.16
22.3504	2.14
22.3518	2.38
22.3524	2.58
22.3544	1.93
22.3584	 1.8
22.3586	2.72
22.3616	1.43
22.3648	2.53
22.3664	1.71
22.3696	1.65
22.3709	2.53
22.3744	1.63
22.3759	2.06
 22.378	 1.5
22.3799	 2.5
22.3824	 1.6
22.3848	 2.1
22.3864	1.62
22.3888	2.18
22.3904	1.83
 22.392	2.07
22.3944	1.53
 22.396	2.32
22.3984	1.91
22.4024	1.74
22.4041	 2.6
22.4064	 1.6
22.4081	2.51
  22.41	1.71
22.4122	2.14
22.4144	1.91
 22.417	1.88
22.4183	1.84
22.4183	1.76
22.4198	2.25
22.4221	1.77
22.4255	2.51
22.4258	1.93
22.4283	2.37
22.4296	2.05
22.4296	1.53
  22.43	2.32
 22.431	2.04
22.4311	2.37
22.4333	2.06
22.4339	2.42
22.4367	2.68
22.4371	2.02
22.4395	2.56
 22.441	1.96
22.4448	2.03
22.4452	2.69
 22.448	 2.7
22.4486	1.88
22.4508	2.25
22.4524	1.92
22.4536	2.53
22.4562	2.03
22.4565	2.44
22.4593	2.59
22.4596	2.02
22.4621	2.52
22.4638	2.01
22.4649	2.79
22.4676	2.12
22.4677	2.31
  22.47	2.29
22.4706	2.81
22.4714	2.28
22.4734	2.43
22.4742	2.09
22.4762	2.56
 22.477	1.76
22.4798	1.85
  22.48	2.68
22.4818	2.51
22.4826	1.97
22.4846	2.14
22.4854	1.88
22.4875	2.01
22.4882	1.71
22.4903	1.88
22.4916	1.63
22.4931	1.72
22.4938	1.55
22.4966	1.41
 22.497	2.13
22.5002	1.88
22.5009	2.57
22.5032	1.79
22.5048	 2.3
22.5078	1.87
22.5087	2.39
  22.51	 1.9
22.5108	1.69
22.5125	2.07
22.5146	1.64
22.5164	2.26
22.5177	1.79
  22.52	2.31
22.5203	2.25
22.5234	1.64
22.5242	2.53
22.5277	2.02
22.5281	2.25
22.5284	1.62
 22.532	2.04
22.5334	1.71
22.5348	2.73
22.5377	2.73
22.5384	2.04
22.5405	 2.8
22.5434	2.88
22.5434	2.31
22.5462	2.78
22.5469	2.19
 22.549	2.27
22.5519	 2.9
22.5522	1.97
22.5547	   3
22.5559	2.18
22.5572	2.81
22.5596	2.28
22.5597	2.78
  22.56	 2.5
22.5622	2.73
22.5626	2.26
22.5628	1.71
22.5647	2.68
22.5666	1.93
22.5671	2.22
22.5672	2.61
22.5698	2.72
  22.57	2.13
22.5708	2.09
22.5723	2.68
22.5746	1.92
22.5748	2.87
22.5773	2.53
22.5774	2.02
22.5794	1.99
22.5798	2.66
22.5814	2.03
22.5823	2.58
22.5834	2.05
22.5848	2.54
22.5854	2.09
 22.586	2.22
22.5873	2.57
22.5874	2.06
22.5893	2.55
22.5894	1.92
22.5908	1.98
22.5918	2.34
 22.593	2.06
22.5944	2.53
22.5969	2.74
22.5974	1.94
22.5994	2.65
   22.6	1.75
   22.6	2.17
22.6014	1.94
22.6019	2.59
22.6049	2.76
22.6054	1.78
22.6074	2.23
  22.61	2.28
22.6106	 1.7
22.6109	1.83
22.6126	2.25
22.6134	1.78
22.6152	2.36
22.6173	2.32
22.6178	1.88
  22.62	2.21
22.6212	1.94
 22.623	2.35
22.6238	2.27
 22.625	1.95
22.6256	2.65
22.6277	2.45
22.6288	1.95
22.6303	2.53
22.6306	1.93
22.6325	1.82
22.6335	 2.5
22.6361	2.51
22.6364	1.86
22.6387	2.21
22.6404	1.68
22.6413	2.72
22.6434	2.23
22.6452	1.74
22.6465	2.66
22.6467	 2.2
22.6484	1.71
22.6491	2.14
22.6524	1.66
22.6526	2.24
22.6561	2.27
22.6564	1.86
22.6596	2.38
22.6604	1.93
22.6631	 2.2
22.6644	1.92
22.6666	2.52
22.6684	1.98
  22.67	2.31
22.6701	2.31
22.6725	1.85
22.6737	2.49
 22.675	2.27
22.6765	2.47
22.6766	1.85
22.6807	2.71
22.6807	1.69
22.6835	2.56
22.6848	1.62
22.6877	 2.7
22.6889	1.74
22.6905	2.37
 22.693	1.72
22.6944	 1.9
22.6971	1.75
22.6982	2.12
22.7009	 2.2
22.7012	1.85
22.7035	2.31
22.7053	1.91
22.7062	2.38
22.7083	2.55
22.7094	2.15
  22.71	2.16
22.7115	2.41
22.7134	 2.2
22.7141	2.29
22.7164	   2
22.7168	2.52
22.7194	2.42
22.7221	2.47
22.7223	1.91
22.7247	2.34
22.7274	2.31
22.7282	1.85
  22.73	2.34
  22.73	2.53
  22.73	2.63
22.7327	2.36
22.7342	2.02
22.7348	2.12
22.7386	2.57
22.7401	2.17
22.7418	2.52
22.7421	1.98
22.7449	2.58
 22.746	2.31
22.7476	2.38
22.7481	2.56
  22.75	2.25
22.7513	2.53
22.7545	2.46
22.7545	1.95
22.7576	2.83
22.7596	1.93
22.7608	2.62
 22.764	2.77
22.7665	2.59
22.7669	1.84
22.7697	2.65
  22.77	2.39
22.7731	2.62
22.7742	1.97
22.7753	2.32
22.7771	 2.2
22.7793	 2.1
 22.782	2.34
22.7822	1.95
22.7842	2.17
22.7865	2.28
22.7881	1.92
22.7887	2.27
  22.79	2.21
22.7905	2.36
22.7926	 1.9
22.7927	2.16
22.7954	2.59
22.7976	2.25
22.7995	1.71
22.7998	2.39
 22.802	2.36
22.8043	2.38
22.8058	1.86
22.8065	2.49
22.8087	2.52
22.8098	1.76
22.8132	2.26
22.8136	1.77
22.8154	2.16
22.8167	2.13
  22.82	2.49
22.8218	2.36
22.8224	2.21
22.8281	2.35
22.8282	2.83
  22.83	2.47
22.8344	2.19
22.8346	2.45
22.8396	1.76
 22.841	2.65
22.8453	1.85
22.8475	 2.3
 22.851	1.91
22.8539	2.57
22.8568	1.77
22.8603	2.55
22.8625	1.71
22.8667	2.25
22.8684	2.58
22.8705	2.52
22.8731	2.71
22.8752	2.57
22.8769	2.49
 22.879	2.41
22.8815	2.35
22.8837	2.37
22.8858	 2.3
22.8863	1.35
22.8879	2.34
22.8896	 2.2
22.8904	1.52
22.8917	2.29
22.8943	2.41
22.8945	1.63
22.8968	   2
22.8986	1.74
22.9006	1.89
22.9027	2.07
22.9027	 1.8
22.9035	1.82
22.9044	2.36
22.9076	1.85
22.9082	2.47
 22.909	2.35
22.9116	2.42
22.9117	1.85
22.9138	2.75
 22.918	3.08
22.9198	2.01
  22.92	2.43
22.9237	2.16
22.9244	2.69
22.9276	 2.7
22.9276	2.12
22.9308	2.45
22.9315	   2
22.9329	2.05
 22.934	2.92
22.9354	2.07
22.9372	2.53
22.9393	2.03
  22.94	2.52
22.9403	2.67
22.9435	2.89
22.9467	2.95
22.9471	2.15
22.9499	2.96
22.9509	2.12
22.9531	2.79
22.9548	2.24
22.9563	 2.9
22.9567	1.83
22.9587	   2
22.9595	2.86
22.9626	2.03
22.9627	2.81
22.9659	2.56
22.9665	1.97
22.9687	1.97
22.9691	2.61
  22.97	2.63
22.9704	1.94
22.9723	2.61
 22.973	1.92
22.9755	2.53
22.9778	1.87
22.9787	 2.6
22.9815	2.07
 22.985	2.83
22.9852	2.03
22.9854	2.01
22.9882	2.57
 22.989	2.22
  22.99	2.77
22.9914	2.74
22.9925	2.35
 22.993	2.64
22.9946	2.72
22.9978	2.67
22.9984	2.54
 23.001	2.63
23.0039	2.45
23.0042	2.58
23.0074	2.56
23.0093	2.49
  23.01	2.55
23.0106	2.49
23.0138	2.35
23.0147	 2.4
  23.02	2.77
23.0202	2.42
23.0234	2.47
23.0256	2.78
23.0265	2.74
23.0297	2.94
 23.031	 2.8
23.0312	2.15
23.0329	 2.9
23.0365	2.61
23.0394	3.24
23.0419	2.18
23.0461	2.44
23.0474	2.12
23.0495	3.03
  23.05	 2.6
23.0528	2.85
23.0528	2.35
23.0561	2.61
23.0566	1.84
23.0582	 2.4
23.0595	2.51
  23.06	2.82
23.0628	2.83
23.0637	2.49
23.0662	 2.7
23.0695	2.44
  23.07	2.52
23.0729	3.07
 23.076	1.74
 23.076	1.77
 23.076	2.22
23.0762	2.81
23.0764	2.52
23.0796	2.73
  23.08	2.84
23.0828	2.25
23.0834	 1.9
23.0863	2.98
23.0892	2.15
23.0896	3.23
  23.09	2.57
 23.093	3.06
23.0957	2.17
23.0963	3.26
23.0997	2.81
 23.102	2.19
 23.103	3.21
23.1041	1.79
23.1064	2.85
 23.108	2.15
23.1097	2.85
  23.11	2.62
23.1131	2.86
23.1139	2.32
23.1164	 3.2
23.1198	2.92
23.1199	2.05
  23.12	2.69
23.1231	3.11
23.1254	2.71
23.1265	1.94
23.1301	 2.5
23.1318	2.04
23.1324	2.26
 23.137	2.39
23.1378	 2.2
23.1394	2.55
23.1416	2.13
23.1417	2.85
 23.144	2.69
 23.146	2.01
23.1463	2.55
23.1486	2.54
23.1491	2.25
  23.15	2.22
23.1509	2.11
23.1509	2.13
23.1509	1.95
 23.151	2.69
23.1518	 1.8
23.1556	2.56
23.1572	1.75
23.1579	 2.3
23.1603	2.66
23.1622	1.91
23.1626	 2.4
23.1662	 1.5
23.1672	2.37
23.1695	2.71
23.1697	1.88
  23.17	2.41
23.1707	 1.6
23.1742	2.09
23.1762	2.08
23.1765	2.44
23.1788	2.25
23.1819	2.06
23.1835	2.32
23.1858	2.28
23.1876	 2.1
23.1881	2.18
  23.19	2.15
23.1904	2.34
23.1917	2.28
23.1928	2.02
23.1951	2.42
23.1959	 2.1
23.1974	1.94
23.1997	2.75
23.2021	 2.9
23.2044	2.72
23.2045	1.91
23.2067	2.48
 23.209	2.19
  23.21	2.44
23.2105	1.65
23.2113	2.56
 23.216	 2.5
23.2174	2.51
23.2183	1.65
23.2211	2.39
 23.223	2.59
23.2248	2.37
23.2265	1.59
23.2271	1.68
23.2271	 2.5
23.2295	2.26
  23.23	2.02
23.2313	2.34
23.2341	2.22
23.2364	2.05
23.2375	2.03
23.2387	2.16
  23.24	2.17
23.2406	2.04
 23.241	1.79
23.2429	2.31
23.2452	   2
23.2476	2.32
23.2479	1.55
23.2499	2.52
23.2517	1.62
23.2522	2.32
 23.254	2.23
23.2545	2.01
23.2552	1.58
23.2592	2.14
23.2592	1.49
  23.26	2.25
23.2615	1.88
23.2632	1.55
23.2648	2.02
23.2676	1.49
 23.268	1.96
  23.27	2.16
23.2712	1.69
23.2713	2.18
23.2745	2.35
23.2752	1.73
23.2778	1.73
23.2794	2.25
  23.28	2.23
 23.281	2.17
23.2819	1.78
23.2821	2.16
23.2843	2.47
23.2848	1.66
23.2875	2.24
 23.288	1.62
  23.29	2.25
23.2908	2.34
23.2915	1.64
23.2941	2.12
23.2947	1.67
23.2973	2.07
   23.3	2.15
23.3006	2.26
23.3011	1.56
23.3038	2.29
23.3044	1.83
23.3071	2.31
23.3076	1.79
23.3103	2.04
23.3136	2.31
23.3168	2.19
23.3172	1.76
23.3201	2.42
23.3205	1.78
23.3226	2.38
23.3251	 1.8
23.3252	1.94
23.3277	2.18
  23.33	2.09
23.3303	 2.1
23.3328	2.21
23.3328	1.79
23.3353	1.49
23.3354	   2
23.3379	2.31
23.3383	2.14
 23.339	1.54
  23.34	 2.1
23.3405	2.03
23.3427	1.62
 23.343	2.16
23.3456	2.24
23.3464	 1.8
23.3481	2.16
23.3507	2.39
23.3532	2.35
23.3538	1.59
23.3558	2.13
 23.358	 1.3
23.3583	2.13
23.3609	2.11
23.3631	1.53
23.3634	2.16
 23.366	2.03
23.3685	2.02
23.3693	1.56
23.3711	2.03
23.3734	1.34
23.3736	2.03
23.3762	1.91
23.3774	1.81
23.3786	1.31
23.3787	1.79
23.3818	1.85
23.3837	1.46
23.3848	2.54
23.3879	2.56
23.3888	2.69
23.3889	1.76
  23.39	2.17
 23.391	 2.4
 23.394	2.55
23.3967	1.72
23.3971	2.28
23.3993	1.77
23.4002	2.35
23.4032	2.58
23.4042	1.73
23.4063	2.35
23.4082	1.56
23.4094	2.23
  23.41	   2
23.4122	1.61
23.4124	2.13
23.4155	1.89
23.4186	2.01
23.4216	1.71
 23.422	1.44
23.4231	1.92
23.4244	2.44
23.4285	1.76
  23.43	2.14
23.4302	2.25
23.4335	1.78
 23.436	2.33
23.4379	1.68
23.4389	2.37
  23.44	2.01
23.4418	2.39
23.4423	1.74
23.4447	2.46
23.4467	1.47
23.4475	2.11
23.4504	2.53
23.4511	1.51
23.4533	2.39
23.4562	2.52
23.4591	2.22
  23.46	1.93
 23.462	2.19
23.4629	2.09
23.4636	1.38
23.4649	1.93
23.4677	1.78
23.4704	 1.9
23.4732	2.45
23.4754	 2.2
23.4759	1.94
23.4786	2.33
  23.48	2.32
23.4814	2.22
23.4825	1.88
23.4841	2.27
23.4868	 2.1
23.4896	1.93
23.4913	2.48
23.4923	2.12
 23.495	2.27
23.4956	1.57
23.4989	1.99
   23.5	1.95
23.5011	   2
23.5038	2.06
23.5052	2.53
23.5065	2.18
23.5093	2.29
23.5116	1.59
 23.512	2.31
23.5147	2.48
23.5175	2.47
  23.52	2.27
  23.52	2.37
23.5202	2.49
 23.523	2.45
23.5257	2.57
23.5262	1.64
23.5284	2.67
23.5339	1.99
23.5366	2.01
  23.54	2.27
  23.54	2.27
23.5402	 1.6
23.5421	1.87
23.5446	2.42
 23.547	2.31
23.5495	2.55
 23.552	2.32
23.5542	1.65
23.5544	2.52
23.5569	2.45
23.5594	2.36
  23.56	2.05
  23.56	2.18
23.5618	2.54
23.5643	2.55
23.5679	1.64
23.5693	2.37
  23.57	2.23
23.5717	2.28
23.5735	 1.5
23.5742	2.15
23.5754	 1.6
23.5754	 2.1
23.5782	1.55
23.5791	2.35
  23.58	2.36
23.5807	1.61
23.5816	2.03
23.5831	1.59
23.5848	2.35
23.5856	1.71
23.5881	1.87
23.5883	2.06
  23.59	2.32
23.5904	1.84
23.5913	2.55
23.5945	2.47
23.5978	2.47
23.5981	1.86
   23.6	2.07
23.6005	1.78
 23.601	2.25
 23.603	 1.7
23.6042	2.44
 23.606	1.82
23.6075	2.32
 23.608	1.73
  23.61	1.98
  23.61	2.39
23.6103	2.12
23.6103	2.46
23.6105	1.86
23.6107	2.37
 23.613	1.81
23.6139	1.99
23.6154	1.61
23.6172	2.06
23.6182	1.51
23.6204	2.01
23.6243	2.12
23.6256	1.53
23.6282	2.02
23.6294	1.75
  23.63	2.37
 23.632	 2.4
23.6331	1.81
23.6359	 2.2
23.6368	1.81
23.6398	2.48
23.6405	1.94
23.6437	 2.1
23.6443	1.74
23.6476	2.29
 23.648	1.69
23.6514	1.99
23.6517	1.66
23.6524	 2.2
23.6524	2.34
23.6553	2.02
23.6591	1.64
23.6592	1.74
  23.66	2.02
23.6623	 1.5
23.6629	1.79
23.6655	1.52
23.6687	1.57
  23.67	 2.2
23.6704	2.42
23.6719	1.78
23.6741	1.77
23.6779	 2.3
23.6783	1.83
23.6815	1.76
23.6816	2.22
23.6847	1.48
23.6853	2.14
23.6879	1.53
23.6891	1.89
  23.69	2.13
23.6915	1.55
23.6928	2.12
23.6965	2.01
23.6967	1.51
23.6983	2.18
23.7003	2.06
23.7019	1.47
 23.704	1.91
 23.704	1.98
23.7071	 1.4
23.7077	2.23
  23.71	1.78
23.7115	2.02
23.7152	2.17
23.7172	1.52
23.7189	1.97
 23.721	1.72
23.7227	 2.2
23.7237	 2.3
23.7237	1.81
23.7248	1.58
23.7264	1.83
23.7287	1.52
  23.73	1.95
  23.73	 2.1
23.7301	1.85
23.7325	1.41
23.7339	2.35
23.7339	1.66
23.7376	1.48
  23.74	1.94
23.7401	1.34
23.7411	1.69
23.7439	1.49
23.7441	2.08
23.7447	1.88
23.7477	1.49
23.7482	2.13
23.7517	2.05
23.7523	1.49
23.7552	1.68
23.7554	1.57
23.7563	1.99
23.7588	1.97
23.7594	1.51
  23.76	2.04
23.7623	1.95
23.7643	1.36
23.7644	1.77
23.7658	1.89
23.7692	1.17
23.7693	1.83
  23.77	2.06
23.7729	1.95
23.7764	1.65
23.7791	1.09
23.7792	2.52
23.7795	2.37
23.7826	2.13
 23.784	1.49
23.7858	2.29
23.7878	1.56
23.7889	2.09
23.7898	2.21
23.7911	1.51
 23.792	2.47
23.7944	1.49
23.7949	 2.4
23.7949	2.96
23.7951	2.25
23.7982	2.35
   23.8	2.07
23.8014	1.91
23.8016	1.57
 23.802	1.98
23.8045	 2.1
23.8076	1.89
  23.81	2.05
23.8107	2.04
23.8131	1.59
23.8138	1.77
 23.817	1.84
23.8189	1.36
  23.82	1.72
 23.823	2.02
23.8246	1.44
 23.826	1.84
23.8289	2.23
23.8304	1.58
23.8319	1.96
23.8349	 1.9
23.8356	1.83
23.8379	2.19
23.8396	1.73
  23.84	2.11
23.8409	2.26
23.8439	1.94
23.8469	 2.3
23.8476	1.64
23.8498	1.95
23.8516	1.57
23.8528	1.78
23.8558	2.24
23.8559	1.61
23.8588	1.94
23.8591	1.58
23.8618	2.03
23.8626	1.49
 23.863	 1.8
23.8677	2.23
23.8698	1.57
  23.87	2.05
23.8707	2.23
23.8709	2.59
23.8734	1.67
23.8737	2.11
23.8767	2.32
 23.879	1.55
23.8797	2.11
23.8827	2.09
23.8842	1.35
23.8857	1.97
23.8886	2.12
  23.89	1.29
23.8916	1.87
23.8946	1.84
23.8957	1.32
23.8972	1.77
23.8981	2.09
23.8981	 2.2
23.8996	 2.3
23.8996	 1.5
   23.9	2.45
   23.9	2.05
 23.902	2.04
23.9026	 1.6
23.9044	2.15
23.9068	2.36
23.9088	1.55
23.9089	1.31
23.9091	2.43
23.9115	2.29
23.9115	1.58
23.9139	2.51
23.9152	1.55
23.9163	   2
 23.918	1.61
23.9182	 2.7
23.9187	2.26
  23.92	2.06
23.9211	2.18
23.9214	1.63
23.9234	2.33
23.9258	1.99
23.9282	2.27
23.9306	2.36
23.9306	1.56
 23.933	 2.5
23.9353	1.47
23.9354	2.09
23.9377	2.59
23.9399	1.49
23.9401	 2.7
23.9425	2.58
23.9445	1.66
23.9449	2.29
23.9473	2.19
23.9496	2.02
  23.95	2.02
23.9501	1.63
 23.952	2.45
23.9538	1.69
23.9544	2.21
23.9568	2.53
23.9576	1.89
23.9585	1.65
23.9592	2.22
23.9616	2.13
23.9631	1.58
23.9639	2.27
23.9687	2.36
23.9711	2.46
23.9718	1.58
23.9734	2.46
23.9735	2.23
23.9759	2.16
 23.978	1.46
23.9782	   2
  23.98	2.15
  23.98	1.66
23.9806	2.08
 23.982	1.78
 23.983	2.04
23.9854	1.92
 23.986	 1.7
23.9878	2.19
 23.988	 1.6
  23.99	1.63
23.9902	1.93
 23.992	1.58
23.9925	2.15
 23.994	1.52
23.9949	2.55
23.9973	 2.5
 23.998	1.39
23.9997	2.51
     24	1.74
     24	1.52
 24.002	1.58
24.0021	2.18
 24.004	1.58
24.0045	2.08
 24.006	1.54
24.0068	2.05
 24.008	1.37
24.0092	 2.2
  24.01	1.87
  24.01	1.31
24.0116	1.89
24.0127	1.43
24.0231	2.14
24.0253	1.43
24.0288	2.38
24.0295	1.56
  24.03	2.15
24.0334	 1.8
24.0346	2.24
24.0368	1.68
24.0403	2.58
24.0436	1.61
24.0461	2.47
 24.047	1.53
24.0504	1.56
24.0518	2.29
24.0538	 1.5
24.0573	1.44
24.0576	1.71
24.0609	1.44
24.0645	1.63
 24.067	2.33
24.0681	1.66
  24.07	1.78
24.0748	 2.4
 24.075	1.69
24.0781	1.58
24.0805	1.89
24.0813	1.44
24.0845	1.35
24.0863	2.17
24.0876	1.44
  24.09	2.02
 24.092	2.15
 24.101	1.48
24.1035	1.82
24.1064	1.43
24.1093	 2.2
24.1117	1.38
 24.115	2.32
 24.115	2.16
  24.12	1.94
24.1208	1.56
24.1244	 2.1
24.1249	1.41
24.1265	1.86
 24.129	 1.4
24.1291	2.21
24.1315	2.64
24.1366	2.21
24.1372	1.45
24.1413	1.64
24.1454	1.64
24.1467	2.27
24.1479	1.71
24.1495	 1.6
  24.15	2.01
24.1517	2.32
24.1526	2.01
24.1536	1.55
24.1567	2.14
24.1618	2.28
24.1628	1.56
24.1668	2.08
24.1668	1.56
24.1712	1.54
24.1719	2.12
24.1756	1.56
24.1769	2.02
  24.18	2.05
  24.18	1.63
24.1837	2.27
24.1841	2.15
24.1841	2.17
24.1866	1.63
24.1871	2.25
24.1893	1.62
24.1937	1.66
 24.195	 1.7
24.1985	1.45
24.2004	1.47
24.2031	 1.5
24.2044	 1.6
24.2077	1.36
24.2091	1.59
24.2098	1.52
  24.21	1.93
24.2124	1.51
24.2147	 1.5
24.2167	1.58
24.2214	 1.4
24.2244	1.64
24.2275	1.59
24.2279	1.99
  24.23	2.04
  24.23	 2.1
24.2336	 1.6
24.2366	1.58
24.2397	1.61
24.2427	1.69
24.2458	1.69
  24.25	2.04
 24.252	1.58
24.2609	 1.7
  24.27	1.94
 24.287	 1.6
24.2891	2.12
24.2899	1.62
  24.29	2.16
24.2928	1.52
24.2957	1.76
24.2985	1.61
   24.3	2.09
24.3014	1.58
24.3043	1.57
24.3072	1.67
  24.31	2.25
24.3101	1.63
 24.313	1.49
24.3136	2.15
24.3159	1.53
24.3173	1.74
24.3188	1.65
24.3217	1.62
 24.322	1.94
24.3245	1.55
24.3267	0.83
24.3274	1.57
24.3303	1.46
24.3361	1.91
24.3361	 1.4
 24.339	1.39
24.3409	2.02
24.3421	1.52
24.3454	1.37
24.3456	1.61
24.3487	1.46
  24.35	1.66
24.3503	1.84
24.3503	2.32
24.3518	1.43
 24.352	1.45
24.3549	2.17
24.3552	1.51
24.3585	1.56
  24.36	   2
24.3618	1.52
24.3651	 1.5
24.3691	1.81
24.3691	1.79
24.3694	1.54
  24.37	2.28
24.3743	1.66
24.3764	2.05
24.3792	1.66
24.3832	2.79
 24.384	1.79
24.3889	1.85
  24.39	1.89
24.3938	1.93
24.3987	1.72
 24.402	1.73
24.4036	1.66
24.4085	1.71
  24.41	2.02
  24.41	2.06
24.4134	1.72
24.4183	1.53
  24.42	2.26
24.4208	1.82
24.4232	1.62
24.4281	1.56
 24.433	1.54
24.4379	1.66
  24.44	2.39
24.4428	1.71
24.4476	1.63
  24.45	2.39
24.4525	1.49
24.4574	 1.8
24.4585	1.75
  24.46	2.27
24.4626	1.54
24.4677	1.61
24.4679	2.12
24.4719	2.27
24.4781	1.59
  24.48	2.25
  24.48	2.32
24.4832	 1.8
24.4878	1.74
24.4884	1.66
  24.49	2.02
24.4917	1.67
24.4926	1.93
24.4956	1.81
24.4995	1.76
24.5072	1.75
  24.51	2.05
24.5103	2.15
24.5111	1.79
 24.515	1.78
24.5189	1.87
24.5228	1.89
24.5266	1.82
  24.53	   2
24.5305	1.62
24.5338	2.33
24.5349	1.73
24.5407	1.57
24.5477	 1.2
24.5518	1.55
24.5576	1.59
24.5635	1.46
24.5693	 1.8
24.5699	1.19
24.5757	2.03
24.5761	1.72
  24.58	2.19
24.5816	1.28
24.5874	1.13
 24.589	2.07
24.5932	1.59
24.5949	1.93
24.5991	1.71
24.6049	1.71
24.6107	1.74
24.6177	1.82
24.6224	1.66
24.6279	   2
24.6282	1.69
24.6341	1.57
24.6399	1.82
  24.64	2.13
24.6427	1.97
24.6456	1.72
24.6499	1.59
24.6541	1.56
24.6583	1.49
24.6625	1.48
24.6668	1.77
  24.67	2.16
 24.671	1.75
24.6752	1.75
24.6794	1.68
24.6891	1.88
24.6902	1.74
24.6932	1.84
24.6961	1.81
24.6991	 1.8
   24.7	1.95
24.7021	1.82
24.7051	1.97
 24.708	1.92
 24.711	1.92
 24.714	1.95
24.7169	 1.9
24.7206	1.71
24.7249	 1.8
24.7293	1.69
24.7336	1.66
 24.737	2.28
 24.738	1.86
24.7387	1.93
24.7423	1.53
24.7467	 1.9
 24.747	2.04
 24.751	1.85
 24.752	1.96
24.7554	1.84
24.7597	2.03
 24.764	2.17
24.7682	1.89
24.7723	1.75
24.7765	1.82
  24.78	2.24
24.7807	1.82
24.7849	 1.9
24.7891	1.92
24.7933	1.98
24.7948	1.75
24.7975	   2
24.8017	1.99
24.8059	1.98
  24.81	2.52
24.8101	1.91
24.8106	   2
24.8143	1.92
24.8182	1.85
24.8255	1.78
24.8291	1.59
24.8327	 1.6
24.8364	1.61
  24.84	1.79
24.8448	1.73
  24.85	2.21
24.8504	1.58
24.8538	2.02
24.8559	1.62
24.8615	1.44
24.8671	1.71
24.8726	1.65
24.8767	1.66
24.8793	1.68
24.8818	 1.7
24.8844	   2
24.8871	1.91
24.8899	1.86
24.8928	1.76
24.8956	1.78
24.8984	1.77
24.9012	1.87
 24.904	1.86
24.9069	1.99
24.9097	2.05
24.9125	2.13
24.9153	1.96
24.9176	2.18
24.9181	   2
 24.921	1.87
24.9238	 1.7
24.9266	1.75
24.9294	1.65
24.9394	1.57
  24.94	 2.5
24.9494	1.55
24.9594	1.71
24.9634	1.77
24.9674	1.77
24.9714	1.97
24.9754	1.63
24.9755	2.21
24.9794	1.74
  24.98	2.25
24.9829	1.72
24.9863	1.68
24.9898	1.65
24.9932	1.76
25.0005	1.74
25.0005	1.71
25.0045	1.81
25.0045	1.64
25.0086	 1.6
  25.01	2.41
25.0265	   2
25.0371	1.74
25.0412	1.67
25.0452	1.76
25.0493	1.85
25.0534	1.76
25.0574	 1.7
  25.06	2.13
25.0601	1.96
25.0601	1.99
25.0604	 1.7
25.0634	1.77
25.0664	1.79
25.0694	1.91
25.0724	 1.9
25.0754	2.08
25.0784	1.98
25.0814	   2
25.0844	2.08
25.0874	2.01
25.0937	1.78
 25.097	1.93
25.1035	1.87
25.1068	1.78
  25.11	2.39
25.1101	1.53
25.1133	1.88
25.1166	1.73
25.1199	1.74
25.1264	1.79
25.1307	1.62
25.1354	1.67
25.1401	1.69
25.1417	2.03
25.1447	1.61
25.1494	1.76
25.1531	1.63
25.1587	1.51
25.1631	1.51
25.1674	1.58
25.1717	1.86
 25.176	1.92
25.1803	1.71
25.1846	1.87
25.1889	1.57
25.1932	1.86
25.1975	1.86
25.2013	2.17
25.2018	1.92
25.2061	 1.9
  25.21	2.24
25.2105	1.65
25.2184	1.62
25.2231	1.66
25.2281	1.64
25.2328	1.61
25.2374	1.61
 25.242	1.89
25.2467	1.94
  25.25	2.14
25.2559	1.62
  25.26	2.44
25.2606	1.57
25.2656	1.66
25.2698	1.67
25.2746	1.65
25.2795	1.94
25.2844	1.97
25.2881	1.92
25.2881	2.02
25.2884	 1.9
  25.29	2.23
25.2943	1.75
25.2992	 1.7
 25.309	1.82
25.3139	1.82
25.3144	1.87
25.3188	1.67
25.3237	 1.6
25.3287	1.68
25.3306	2.58
25.3337	1.66
25.3387	1.63
  25.34	2.39
25.3437	1.43
25.3487	1.52
25.3537	 1.7
25.3587	1.78
25.3627	1.63
25.3687	 1.8
25.3737	1.84
25.3787	1.69
25.3842	1.72
25.3887	1.93
25.3937	1.93
25.3991	1.92
25.4058	1.72
  25.41	2.18
25.4124	1.68
25.4244	1.54
25.4324	1.39
 25.439	 1.8
25.4444	1.72
 25.447	1.91
25.4505	 1.9
25.4524	1.91
25.4542	2.02
25.4559	2.04
25.4576	2.03
25.4594	1.98
  25.46	2.14
25.4611	2.02
25.4628	2.14
 25.464	1.69
 25.471	2.16
25.4744	2.09
25.4799	 1.9
25.4853	2.09
25.4943	2.34
25.4985	   2
25.4985	2.08
   25.5	2.32
25.5002	2.08
25.5033	1.93
25.5063	2.12
25.5093	2.18
25.5123	2.11
25.5153	1.97
25.5183	2.06
25.5213	2.07
25.5252	2.93
25.5274	1.94
25.5323	1.93
25.5334	2.02
25.5364	1.99
25.5394	1.97
  25.54	2.27
25.5422	1.87
25.5449	1.74
25.5476	1.92
25.5477	2.94
25.5503	1.86
25.5531	2.01
25.5562	1.96
25.5597	2.09
25.5633	 2.1
25.5668	2.03
25.5704	1.92
25.5739	2.02
25.5774	   2
25.5803	1.91
25.5827	1.73
25.5831	1.92
 25.586	1.92
25.5893	1.83
25.5926	2.44
25.5929	1.99
25.5966	1.86
25.6001	1.83
25.6022	2.03
25.6035	1.73
25.6069	1.61
25.6071	 2.1
25.6103	1.75
25.6137	1.75
 25.615	2.59
25.6178	1.61
25.6226	1.68
25.6274	1.72
25.6322	1.61
25.6345	2.45
 25.637	1.73
25.6415	1.86
25.6422	2.55
25.6457	1.81
25.6499	1.79
 25.651	 2.5
25.6548	2.36
25.6575	 2.6
25.6583	1.68
  25.66	2.48
25.6651	2.67
25.6671	1.56
25.6678	1.38
25.6715	1.66
25.6724	2.47
25.6736	1.94
 25.676	1.76
25.6804	2.53
25.6804	1.64
25.6849	1.84
25.6893	1.94
  25.69	2.39
 25.691	3.23
25.6919	2.56
25.6938	1.88
25.6953	2.61
25.6982	1.78
25.7027	1.63
25.7034	2.35
25.7071	1.69
 25.711	2.36
25.7116	1.67
 25.716	1.81
 25.719	2.41
25.7205	 1.7
 25.725	1.67
25.7252	 2.4
25.7294	1.66
  25.73	2.25
25.7332	1.75
25.7369	1.84
25.7374	3.04
25.7407	1.74
25.7416	2.43
25.7444	1.61
25.7482	1.62
25.7496	2.41
25.7519	1.69
25.7557	1.68
25.7573	2.48
25.7594	1.69
25.7631	1.71
25.7657	2.42
25.7664	1.95
  25.77	2.23
25.7704	1.94
25.7722	 2.4
25.7748	1.57
25.7791	1.55
25.7798	2.48
25.7834	1.94
25.7838	3.26
25.7867	1.88
25.7875	 2.6
  25.79	1.85
25.7916	2.28
25.7933	2.05
25.7951	2.29
25.7966	2.14
25.7999	2.27
25.8031	2.04
25.8031	1.99
25.8069	2.06
  25.81	2.22
  25.81	2.22
25.8111	2.23
25.8153	2.47
25.8159	1.99
25.8173	2.37
  25.82	2.41
25.8206	2.13
25.8253	2.13
25.8347	2.22
 25.839	 2.6
25.8394	2.08
25.8426	2.13
25.8457	2.39
 25.852	2.02
25.8552	2.07
25.8576	2.56
25.8583	2.15
  25.86	2.47
25.8615	 2.1
25.8646	2.23
25.8678	2.24
25.8709	2.33
25.8741	1.99
25.8773	2.22
25.8783	2.47
25.8804	2.41
25.8867	2.21
25.8874	 1.7
25.8899	2.01
25.8901	1.94
25.8918	2.26
25.8931	2.03
25.8964	1.94
25.8989	2.48
25.8997	1.83
   25.9	2.32
   25.9	2.46
 25.903	 1.9
25.9063	2.18
25.9096	2.02
25.9129	2.29
25.9162	2.14
25.9195	1.98
25.9196	2.37
  25.92	2.16
25.9228	2.27
25.9261	2.21
25.9293	 2.4
25.9326	2.04
25.9359	2.24
25.9392	2.04
  25.94	2.98
25.9402	 2.5
25.9471	2.28
25.9517	2.07
25.9563	1.97
  25.96	2.33
25.9609	2.29
 25.961	2.24
25.9656	1.96
25.9698	1.86
25.9725	2.52
25.9738	1.97
25.9777	1.86
  25.98	2.69
25.9815	 2.5
25.9817	1.83
25.9893	2.97
25.9896	2.02
25.9936	1.85
25.9976	1.86
     26	2.41
26.0015	2.24
26.0042	2.53
26.0055	1.89
 26.007	2.96
26.0094	1.87
  26.01	2.07
26.0132	2.26
26.0168	1.96
26.0228	 2.4
 26.024	   2
26.0276	1.81
  26.03	2.48
26.0312	1.51
 26.032	 2.7
26.0348	1.62
26.0384	1.81
  26.04	2.31
  26.04	2.58
 26.042	1.73
26.0435	2.53
26.0451	1.84
26.0479	 2.2
26.0506	1.83
 26.051	2.87
26.0534	1.51
26.0617	1.73
26.0641	2.67
26.0645	1.66
26.0672	1.58
26.0728	1.56
26.0755	1.53
26.0783	1.57
 26.079	2.84
  26.08	2.24
26.0804	2.35
26.0811	1.78
26.0848	2.65
26.0889	1.82
26.0911	1.37
26.0945	 1.6
26.0965	3.02
 26.098	 1.5
26.1014	1.53
26.1049	 1.7
26.1055	2.71
26.1083	1.61
  26.11	 2.3
26.1117	1.66
26.1151	1.48
26.1186	1.79
 26.122	 1.2
26.1254	1.18
26.1261	2.79
26.1285	1.52
 26.132	2.54
26.1341	2.69
  26.14	2.55
26.1408	2.05
26.1438	1.46
26.1468	2.74
26.1469	1.68
  26.15	1.86
26.1531	 1.8
26.1563	1.92
 26.159	 2.8
26.1594	1.77
26.1629	1.64
26.1654	 2.3
26.1664	2.03
26.1674	2.61
  26.17	2.34
26.1717	 1.5
26.1769	 1.6
26.1779	2.29
26.1821	1.69
 26.186	2.86
26.1874	1.78
26.1881	2.62
26.1926	1.67
26.1978	 1.9
26.2024	1.59
26.2063	2.21
26.2087	2.64
  26.21	2.78
26.2102	1.82
 26.211	2.82
26.2114	 1.7
26.2114	3.18
26.2141	1.81
 26.217	2.47
26.2181	1.65
 26.222	 1.3
26.2229	 2.8
26.2259	1.77
26.2294	2.72
26.2298	1.61
26.2337	1.45
26.2356	   3
26.2376	1.95
  26.24	2.85
  26.24	2.34
26.2416	1.72
  26.25	 3.1
26.2526	1.72
26.2552	2.75
 26.256	1.52
26.2595	1.35
26.2629	 1.5
26.2664	1.51
 26.268	2.85
26.2698	1.59
26.2733	1.49
26.2758	2.81
26.2767	1.79
  26.28	2.58
26.2802	1.96
26.2836	2.07
26.2871	2.04
26.2904	2.01
26.2947	1.88
26.2965	2.73
26.2986	1.62
26.3025	1.98
26.3064	1.49
  26.31	2.57
  26.31	1.96
26.3135	1.93
 26.317	2.34
26.3172	2.81
26.3241	2.16
26.3262	2.89
26.3339	2.25
26.3351	1.92
 26.345	2.88
26.3491	2.31
26.3502	2.61
26.3535	 1.7
26.3579	1.88
26.3622	1.94
26.3664	1.69
  26.37	2.63
 26.374	2.58
26.3743	2.17
26.3782	1.69
26.3822	1.79
26.3861	2.27
26.3894	2.46
26.3894	2.56
26.3901	2.28
 26.394	2.14
26.3946	2.92
 26.398	2.26
   26.4	2.68
26.4019	2.28
26.4059	 1.6
26.4098	1.51
26.4136	2.03
26.4153	2.64
26.4175	1.98
26.4214	1.91
26.4252	1.83
26.4291	1.98
26.4334	2.91
26.4359	2.47
26.4368	1.59
  26.44	2.42
26.4411	2.26
26.4446	1.81
26.4484	2.08
26.4523	1.76
26.4562	1.78
  26.46	1.36
26.4639	1.55
26.4641	2.23
26.4658	2.09
26.4676	1.53
26.4713	1.55
26.4749	1.72
26.4772	2.67
26.4786	1.87
26.4823	   2
26.4846	2.72
26.4862	1.88
  26.49	1.89
26.4938	1.98
26.4976	2.36
26.5007	2.06
26.5014	1.91
26.5053	2.07
26.5107	2.65
26.5129	2.27
26.5167	1.84
26.5169	1.88
26.5185	 2.7
26.5209	2.01
26.5249	 2.1
 26.529	2.02
26.5331	2.18
 26.535	2.74
26.5372	1.99
26.5411	2.88
26.5413	   2
26.5454	2.09
26.5495	2.02
26.5536	1.93
 26.556	2.83
 26.557	2.85
26.5577	1.74
26.5618	 1.8
26.5656	1.69
26.5691	1.43
  26.57	2.39
26.5727	1.88
26.5762	1.76
26.5789	2.19
26.5791	2.63
26.5798	1.87
26.5833	2.22
26.5869	2.22
 26.589	2.66
26.5905	2.15
 26.594	 2.3
26.5974	 2.3
26.6007	2.36
 26.604	2.22
26.6073	1.91
26.6105	1.99
26.6134	2.09
26.6138	1.89
 26.616	2.71
26.6171	1.94
26.6204	2.04
26.6237	2.03
 26.627	1.95
26.6303	1.88
26.6335	1.79
26.6368	1.77
  26.64	2.72
  26.64	2.72
26.6401	1.61
 26.641	2.63
26.6435	1.83
26.6469	2.01
26.6504	1.76
26.6538	1.63
26.6573	1.66
26.6607	1.77
 26.661	3.03
26.6641	1.97
26.6676	1.94
 26.671	2.01
26.6712	2.72
26.6742	2.33
26.6779	1.84
26.6813	   2
 26.684	2.88
26.6848	2.19
26.6883	2.18
26.6919	1.95
26.6954	2.13
 26.699	2.14
26.7025	2.15
26.7035	2.88
26.7061	 2.1
26.7096	2.13
26.7132	 2.2
26.7167	2.12
  26.72	2.72
26.7202	1.94
26.7237	2.22
 26.726	2.19
26.7283	3.06
26.7284	1.85
26.7306	2.83
26.7307	2.35
26.7378	2.42
26.7425	2.36
26.7448	2.43
26.7519	2.52
26.7542	2.47
26.7566	2.55
26.7577	 2.8
26.7589	2.47
  26.76	2.67
26.7612	2.35
26.7636	2.38
26.7659	2.25
 26.768	2.92
26.7683	2.33
26.7692	 2.2
26.7716	2.33
26.7739	2.22
26.7763	2.34
26.7786	2.12
 26.781	1.84
26.8118	2.87
 26.816	3.09
26.8317	1.95
26.8317	2.56
26.8389	2.92
  26.84	 2.2
  26.85	3.13
26.8547	2.04
26.8659	2.74
26.8676	2.67
  26.87	2.31
26.8891	2.96
  26.94	2.52
 26.942	2.86
26.9595	2.87
26.9607	2.92
 26.969	3.07
26.9878	2.92
26.9925	2.32
 26.996	3.01
     27	 2.3
     27	2.58
  27.02	2.15
 27.023	2.94
  27.03	2.62
  27.03	2.92
  27.03	2.92
  27.03	2.92
  27.03	2.92
  27.03	2.92
27.0359	2.35
  27.05	3.19
27.0519	3.11
27.0528	 2.5
  27.06	2.75
   27.1	2.64
  27.13	2.35
  27.16	2.54
  27.21	2.32
  27.25	 2.1
  27.27	1.95
  27.29	2.08
 27.334	 2.8
  27.37	1.99
 27.382	2.55
27.3872	2.49
27.3872	   3
  27.39	2.18
  27.41	2.37
27.4191	2.02
  27.43	2.47
 27.437	2.83
27.4458	2.09
  27.45	2.34
  27.46	2.23
 27.465	2.82
  27.48	2.16
 27.494	3.02
  27.52	2.82
  27.52	2.25
  27.55	2.11
 27.554	2.73
  27.56	2.11
27.5628	2.43
27.5628	3.59
  27.57	2.65
 27.577	2.79
  27.58	2.65
   27.6	2.37
   27.6	2.41
  27.62	2.45
27.6216	2.57
27.6335	2.63
 27.644	2.81
  27.66	2.35
 27.672	2.62
   27.7	2.56
 27.701	2.96
 27.723	2.97
27.7384	3.07
  27.77	2.67
 27.778	2.72
 27.796	2.77
   27.8	2.45
27.8194	2.33
  27.84	2.47
 27.851	2.93
 27.879	2.93
  27.89	2.66
 27.908	2.64
 27.934	 2.9
  27.95	2.45
 27.956	2.93
  27.98	2.83
  27.99	 2.9
     28	2.29
  28.01	2.25
28.0228	2.14
  28.04	2.11
  28.04	2.33
 28.058	3.06
  28.08	2.46
 28.091	3.09
  28.11	 2.3
 28.113	2.93
28.1348	2.31
 28.137	 2.7
 28.163	2.66
  28.17	2.29
 28.197	3.04
28.2035	2.27
 28.212	3.11
28.2143	2.52
  28.22	2.29
  28.25	2.61
 28.266	3.28
  28.27	2.33
  28.29	2.57
 28.292	3.05
  28.32	3.01
 28.348	2.82
28.3499	2.09
  28.35	2.62
28.3667	1.87
 28.375	2.86
  28.38	2.31
 28.389	2.85
28.3995	2.32
 28.404	2.92
28.4114	1.83
  28.42	2.17
  28.45	 2.4
 28.465	2.68
28.4672	2.22
  28.47	2.18
  28.47	2.18
  28.47	2.18
  28.47	2.18
  28.49	2.02
28.4952	2.91
 28.499	2.65
   28.5	2.12
 28.511	3.26
 28.515	 2.1
28.5185	3.08
  28.52	2.01
28.5207	2.41
 28.536	2.11
  28.54	2.41
28.5455	2.69
28.5477	2.67
28.5777	2.24
28.5979	2.41
  28.62	2.38
 28.644	 2.8
28.6468	1.99
28.6689	2.65
 28.673	2.89
  28.68	2.56
28.6814	2.48
28.6856	2.39
 28.698	3.01
28.7177	 2.9
  28.72	2.44
28.7452	2.41
  28.75	2.41
 28.753	2.94
 28.773	2.92
28.7766	2.45
  28.78	2.26
28.7857	 2.5
 28.799	2.97
  28.82	2.85
  28.82	2.25
 28.845	2.63
  28.85	2.49
  28.87	 2.5
 28.871	   3
 28.884	 2.9
28.8843	3.03
   28.9	2.54
  28.93	2.31
 28.933	2.73
28.9332	2.55
  28.95	2.23
 28.956	2.79
  28.98	2.31
 28.981	2.73
28.9921	 2.7
 29.004	2.77
  29.01	2.26
 29.025	2.53
  29.03	 2.5
29.0409	2.72
 29.054	2.78
  29.06	2.22
  29.09	2.51
29.0998	2.57
 29.106	2.81
  29.12	2.25
  29.12	2.25
29.1248	2.29
 29.127	 2.8
29.1314	 1.9
  29.14	 2.1
 29.152	2.86
  29.17	2.12
 29.179	2.64
29.1831	2.21
 29.199	2.89
   29.2	2.09
   29.2	2.26
   29.2	2.26
 29.216	2.73
  29.23	2.33
 29.239	2.99
29.2563	2.85
  29.26	2.33
  29.26	2.33
  29.26	2.33
  29.26	2.33
  29.26	2.33
  29.28	2.42
  29.28	2.43
 29.287	2.87
   29.3	2.27
 29.313	2.83
  29.33	1.94
 29.334	 2.7
  29.35	1.75
29.3511	2.65
29.3576	2.27
 29.358	2.68
  29.37	2.18
  29.38	2.18
  29.38	2.43
 29.384	2.55
   29.4	2.24
 29.409	2.59
  29.41	2.44
29.4164	2.65
  29.44	2.34
 29.465	2.96
  29.47	2.08
  29.47	2.08
 29.489	2.78
   29.5	2.46
   29.5	2.46
 29.511	3.03
  29.53	2.35
 29.535	2.99
29.5397	2.02
  29.57	2.43
  29.61	 2.2
  29.61	 2.2
  29.65	2.24
  29.65	2.24
  29.69	2.37
   29.7	2.19
  29.74	1.92
29.7419	2.01
29.7419	2.32
  29.76	2.37
29.7644	2.91
  29.78	1.82
 29.792	2.85
  29.81	2.14
 29.815	2.72
  29.84	2.18
 29.853	2.86
  29.88	2.28
 29.901	2.97
 29.923	2.74
29.9265	 2.2
  29.93	2.42
  29.94	2.29
 29.947	2.73
 29.971	2.71
  29.98	2.51
 29.995	2.91
29.9994	2.66
  30.01	2.24
  30.01	2.24
 30.018	2.71
30.0233	 1.7
30.0233	2.76
30.0392	 2.7
30.0413	2.52
30.0631	 2.4
 30.071	2.68
  30.08	 2.9
 30.087	2.72
  30.09	2.39
30.1091	2.88
30.1192	1.87
  30.12	2.28
 30.131	2.85
30.1384	2.29
30.1518	2.99
  30.16	2.02
30.1684	2.87
 30.182	2.86
30.1948	2.71
30.1948	2.71
   30.2	2.06
  30.23	2.97
  30.23	2.42
30.2424	2.77
  30.26	2.11
 30.272	2.74
30.2805	2.75
  30.29	2.34
30.2954	2.46
30.3058	 2.9
 30.306	2.78
30.3148	2.87
30.3187	2.65
30.3277	2.06
  30.33	2.06
 30.359	2.77
30.3663	2.61
  30.38	2.23
  30.38	2.23
  30.38	2.23
  30.38	2.23
30.3827	2.84
30.3988	2.51
30.4007	2.84
  30.42	2.32
30.4329	   3
30.4537	2.78
 30.454	2.68
  30.46	2.33
30.4704	2.67
30.4813	 2.8
 30.488	2.61
30.4918	2.32
30.4964	 2.7
30.4983	2.47
30.4983	2.72
   30.5	2.68
30.5039	2.79
30.5046	2.23
  30.51	2.26
30.5114	2.89
30.5167	1.93
30.5206	2.63
30.5209	2.48
30.5257	   3
30.5273	2.69
30.5277	2.73
30.5306	2.44
30.5306	2.68
30.5374	2.49
30.5392	2.37
30.5449	2.64
30.5457	2.27
 30.548	2.69
  30.55	1.93
30.5541	2.83
30.5608	2.65
30.5675	2.87
30.5694	2.65
30.5759	2.39
30.5759	 2.4
30.5801	2.77
30.5845	2.39
30.5885	2.54
 30.595	2.56
30.5968	2.77
   30.6	2.44
30.6049	2.57
30.6136	2.63
30.6157	2.38
 30.622	 2.5
30.6265	 2.5
30.6303	2.62
30.6309	2.61
 30.634	2.53
30.6379	2.69
  30.64	1.65
 30.643	2.66
30.6479	2.68
 30.648	2.45
30.6538	2.44
30.6588	2.57
30.6605	2.64
30.6685	2.74
30.6714	2.58
30.6788	2.07
30.6806	2.87
30.6825	2.53
  30.69	2.22
30.6918	2.06
 30.692	2.71
30.6922	2.61
30.6923	2.42
30.6973	2.68
30.6981	2.45
30.7019	2.66
30.7048	2.47
30.7057	2.35
30.7094	2.72
30.7115	2.78
 30.716	2.68
30.7191	2.62
30.7216	2.68
30.7291	2.81
 30.732	2.36
30.7383	2.73
30.7396	2.63
30.7396	2.67
  30.74	 2.5
30.7471	2.57
30.7475	2.83
30.7551	2.85
30.7568	2.44
30.7643	2.84
30.7743	2.88
  30.78	2.17
30.7802	2.67
30.7886	2.83
30.7969	2.71
 30.801	2.86
30.8062	2.66
30.8221	2.65
30.8237	2.68
30.8304	 2.6
 30.838	2.81
 30.843	2.66
30.8451	2.44
30.8455	2.74
  30.85	2.78
30.8547	2.98
30.8548	2.57
30.8581	2.91
30.8631	2.78
30.8654	2.58
  30.87	2.05
30.8723	2.75
  30.88	2.41
30.8804	2.25
30.8815	2.92
 30.889	2.71
 30.894	1.82
 30.894	2.04
30.8983	 2.9
30.9058	2.79
30.9133	2.95
30.9248	2.93
30.9284	2.64
  30.94	 2.5
30.9447	2.63
30.9507	2.44
30.9579	2.75
30.9626	2.36
  30.97	2.08
30.9745	2.62
  30.98	2.05
 30.983	2.59
30.9893	 2.6
30.9968	2.63
31.0101	2.32
 31.014	2.49
31.0161	2.51
  31.02	2.21
31.0229	2.55
31.0326	2.37
31.0399	2.43
31.0433	2.34
 31.049	 2.6
31.0509	2.29
 31.055	2.57
31.0562	2.72
31.0595	2.52
  31.06	2.34
31.0692	2.46
31.0696	2.54
31.0789	2.41
 31.083	2.53
31.0886	2.68
  31.09	2.12
31.0924	2.15
31.0993	2.51
31.0994	2.53
 31.109	2.39
31.1217	2.65
 31.122	2.47
31.1291	2.54
31.1327	2.46
 31.137	2.67
31.1383	2.59
 31.144	2.42
31.1457	2.43
31.1535	2.56
31.1564	2.46
31.1603	2.41
31.1672	2.62
  31.17	2.18
31.1707	2.39
 31.178	 2.4
 31.178	2.92
31.1898	2.52
  31.19	2.42
31.1995	2.57
31.2049	2.47
  31.21	2.26
31.2103	2.41
31.2138	2.44
31.2189	2.09
 31.222	2.62
31.2277	2.68
31.2286	2.22
31.2361	2.41
31.2415	2.44
 31.248	2.55
  31.25	2.41
 31.259	2.71
31.2644	2.58
31.2652	2.35
31.2652	2.37
31.2749	2.29
31.2778	2.72
  31.28	2.38
31.2846	2.54
31.2882	2.66
31.3001	2.71
31.3072	2.52
31.3157	2.51
31.3191	2.39
  31.32	2.25
31.3259	2.51
31.3277	2.29
31.3342	2.47
 31.336	2.25
31.3363	2.38
 31.341	2.62
31.3488	2.35
  31.35	2.09
31.3503	2.36
 31.359	 2.6
31.3616	2.23
 31.375	2.46
  31.38	2.34
31.3895	2.56
31.4012	2.51
31.4085	3.08
  31.41	   2
31.4152	2.17
31.4172	2.66
31.4182	2.36
31.4182	 2.4
  31.43	2.47
31.4332	2.79
31.4397	2.56
  31.44	1.86
 31.443	2.73
31.4463	2.62
31.4526	2.39
31.4594	 2.7
31.4682	2.85
  31.47	2.18
 31.472	2.36
 31.472	2.52
31.4806	2.55
 31.484	 2.6
  31.49	2.55
 31.499	2.39
 31.499	 2.7
   31.5	 2.3
31.5046	 2.5
31.5097	2.81
31.5112	2.37
31.5177	2.54
 31.529	2.58
31.5296	2.08
  31.53	2.16
31.5352	2.74
 31.542	2.58
 31.542	2.73
31.5468	2.63
 31.555	2.65
  31.56	2.15
31.5628	2.58
31.5647	2.63
 31.566	2.57
31.5754	2.37
31.5788	2.57
31.5862	2.63
  31.59	2.13
31.5919	2.57
31.6045	 2.4
31.6045	2.55
 31.608	2.45
 31.613	 2.6
31.6153	 2.4
  31.62	2.22
31.6211	2.84
31.6282	2.63
31.6313	2.55
31.6401	 2.6
31.6497	 2.4
  31.65	2.55
31.6502	2.67
31.6584	2.44
31.6647	2.49
31.6745	2.59
31.6793	 2.7
31.6814	1.88
31.6832	2.88
31.6842	2.33
31.6842	 3.2
 31.686	 2.6
31.6982	2.55
   31.7	2.01
31.7025	2.28
31.7025	2.53
31.7099	2.68
31.7133	2.19
 31.719	2.48
 31.723	2.39
31.7244	2.55
  31.73	2.11
31.7348	2.34
31.7376	2.64
31.7413	2.23
31.7445	2.59
 31.748	2.59
31.7536	2.36
31.7553	2.42
31.7652	2.45
  31.77	2.15
 31.771	2.61
31.7736	2.15
31.7815	 2.4
31.7856	2.48
  31.79	2.39
 31.791	2.33
31.7919	2.28
31.7919	2.41
31.7958	2.55
31.8038	2.16
31.8118	2.59
31.8156	2.44
31.8249	2.57
31.8253	2.52
  31.83	2.03
 31.835	2.38
  31.84	2.25
31.8438	2.52
31.8546	   2
31.8613	2.53
 31.869	2.62
 31.872	2.79
31.8759	2.41
31.8773	2.57
  31.88	2.15
31.8832	2.62
31.8899	2.39
31.8976	2.19
31.8992	2.65
31.8996	2.56
31.9061	2.52
  31.91	2.03
 31.913	2.78
31.9167	2.67
31.9169	2.41
31.9298	2.27
  31.93	 2.2
31.9312	2.59
31.9427	2.41
31.9429	2.54
31.9545	 2.4
  31.96	2.12
  31.96	2.57
31.9628	2.19
31.9675	2.25
31.9761	 2.4
31.9836	2.63
31.9837	2.41
  31.99	2.06
31.9933	2.64
 31.995	2.64
31.9997	2.75
31.9998	2.46
32.0074	 2.4
  32.01	2.11
32.0113	 2.6
 32.016	2.42
32.0288	2.76
32.0289	2.44
  32.03	2.57
32.0312	2.65
32.0375	2.52
32.0448	2.58
32.0499	2.24
  32.05	1.85
32.0612	2.08
 32.071	2.56
32.0763	2.39
32.0774	2.34
 32.079	2.78
32.0914	2.31
   32.1	1.99
32.1016	2.49
32.1054	 2.4
32.1108	2.61
32.1161	2.57
32.1215	2.62
 32.132	 2.8
32.1323	2.72
32.1351	2.65
  32.14	1.86
32.1453	2.72
32.1495	2.44
32.1495	 2.6
32.1581	2.62
32.1613	2.74
32.1657	2.77
32.1744	2.84
 32.179	2.64
  32.18	1.99
32.1851	2.48
32.1889	2.81
 32.202	2.74
32.2055	2.47
32.2079	2.77
  32.21	1.83
32.2152	 2.5
32.2152	2.55
32.2224	2.63
32.2249	2.39
 32.226	2.45
32.2268	2.52
32.2326	2.57
32.2339	1.83
32.2357	2.66
32.2486	2.63
32.2497	2.65
  32.25	2.23
 32.255	1.79
32.2583	2.82
 32.261	2.73
32.2618	2.78
32.2669	2.59
32.2745	2.68
32.2778	2.82
32.2842	2.72
32.2909	2.67
32.2917	 2.7
   32.3	2.36
 32.302	2.65
32.3036	2.54
32.3069	2.66
32.3122	2.66
  32.32	2.66
32.3233	2.08
32.3331	2.59
32.3371	2.17
 32.338	 2.8
  32.34	2.23
32.3418	2.62
32.3579	2.69
32.3585	2.57
 32.368	2.73
32.3682	2.69
  32.37	2.34
32.3782	2.71
 32.385	2.79
32.3913	2.62
32.3919	 2.5
32.3919	2.72
   32.4	2.27
32.4048	 2.7
32.4074	2.66
32.4145	2.68
  32.42	2.29
32.4205	2.58
32.4316	1.99
32.4336	 2.1
 32.435	2.67
32.4365	2.59
  32.44	2.27
32.4447	2.53
32.4483	1.69
32.4525	2.71
32.4533	2.68
32.4651	2.39
32.4816	2.71
 32.483	 2.6
  32.49	2.38
32.4976	2.72
32.5028	1.83
32.5093	 2.7
32.5161	1.87
32.5177	2.82
 32.519	2.47
  32.52	2.22
 32.532	2.64
32.5384	 2.7
 32.553	2.74
  32.56	2.28
32.5614	1.87
32.5664	2.41
32.5664	2.63
 32.567	2.65
32.5705	2.47
32.5821	2.45
32.5845	2.88
32.5981	2.56
   32.6	2.23
 32.608	2.54
32.6095	2.45
32.6112	2.82
32.6123	2.24
32.6185	2.41
32.6212	 2.8
  32.63	2.33
32.6332	2.56
32.6389	2.59
 32.639	2.75
32.6447	2.64
32.6525	2.52
32.6593	 2.6
32.6644	2.56
32.6695	 2.5
  32.67	2.43
32.6748	2.76
32.6762	2.78
 32.684	2.49
  32.69	2.91
32.6967	3.12
32.6986	2.67
32.7016	1.91
  32.71	2.18
 32.712	2.78
32.7146	2.51
32.7161	2.42
32.7179	1.83
32.7284	2.58
  32.73	2.53
 32.745	2.69
32.7467	2.99
32.7482	2.65
  32.75	2.33
32.7504	1.49
32.7571	2.56
  32.77	2.31
 32.772	2.34
32.7721	 2.6
32.7854	2.76
  32.79	2.28
 32.792	2.87
32.8017	2.65
  32.81	2.37
32.8106	 2.7
 32.825	2.99
32.8314	2.53
32.8335	2.62
32.8335	3.11
32.8357	2.61
  32.84	2.29
 32.841	2.78
32.8463	 2.6
32.8537	2.85
 32.855	2.89
 32.855	2.96
32.8572	2.55
32.8582	2.74
  32.86	2.23
  32.86	2.23
32.8704	2.69
 32.874	2.77
 32.876	2.59
  32.88	2.51
32.8803	2.62
32.8909	2.33
   32.9	2.42
32.9073	 2.7
 32.911	2.76
32.9132	2.51
32.9132	2.56
  32.92	 2.3
32.9206	2.65
  32.93	2.28
32.9315	2.78
32.9355	2.68
32.9394	   2
  32.94	 2.2
32.9401	2.45
32.9423	2.94
 32.945	2.86
32.9504	2.58
32.9509	 2.4
32.9515	2.15
32.9652	2.92
  32.97	2.05
 32.974	2.89
 32.976	2.99
32.9768	2.68
32.9801	2.91
32.9965	2.59
32.9983	2.73
33.0099	2.48
  33.01	2.19
33.0198	2.79
 33.021	2.73
33.0232	2.72
33.0263	2.69
  33.03	2.28
33.0322	2.96
33.0328	2.63
33.0403	2.36
33.0457	2.59
33.0485	2.77
 33.052	3.17
33.0553	2.71
33.0585	3.07
33.0587	2.73
33.0594	2.73
  33.06	2.12
 33.064	2.84
33.0654	2.77
33.0713	2.63
 33.072	2.95
33.0739	2.82
33.0781	2.71
  33.08	2.99
33.0854	2.86
33.0875	2.69
33.0875	2.74
33.0927	2.79
 33.094	2.78
33.0987	2.97
   33.1	2.18
 33.106	3.04
33.1097	2.77
33.1114	2.64
 33.114	3.01
  33.12	2.24
33.1207	 2.9
33.1254	3.08
  33.13	2.72
 33.131	3.06
 33.133	3.01
33.1387	3.02
  33.14	2.18
33.1435	2.23
33.1441	3.07
33.1567	2.93
33.1654	2.98
  33.17	2.38
33.1727	2.83
  33.18	2.95
33.1814	3.02
33.1861	3.02
33.1876	2.42
  33.19	2.37
 33.195	 3.2
33.1974	3.01
33.2035	2.91
33.2046	2.94
33.2054	2.97
33.2108	2.78
33.2121	2.69
33.2148	2.89
33.2188	   3
 33.221	 2.7
33.2261	2.83
33.2321	2.79
 33.234	 2.5
33.2351	3.07
33.2395	2.89
  33.24	2.58
33.2475	2.95
33.2521	 2.9
 33.256	2.88
33.2581	2.83
33.2595	2.93
  33.26	2.33
33.2648	2.78
33.2722	2.92
33.2808	2.72
 33.285	3.14
33.2855	2.73
33.2888	2.66
  33.29	 2.5
 33.297	3.12
33.3016	3.01
 33.303	2.87
33.3127	2.95
33.3135	 2.1
33.3188	2.89
  33.32	2.48
33.3236	1.88
33.3262	2.72
33.3315	2.74
33.3374	2.78
33.3382	 2.8
  33.34	 2.3
33.3406	2.92
33.3429	2.81
33.3451	2.98
33.3451	3.16
  33.35	2.57
33.3522	 2.7
33.3537	2.74
33.3595	2.88
  33.36	2.35
33.3681	 2.7
33.3689	2.74
  33.37	2.47
33.3742	2.77
 33.379	3.05
33.3802	2.69
33.3826	3.09
33.3856	2.91
  33.39	2.31
33.3916	2.68
 33.392	3.03
33.3976	2.76
33.3985	2.92
33.4056	2.74
  33.41	2.34
33.4116	2.81
 33.412	3.06
33.4142	2.86
33.4156	2.48
33.4209	2.84
33.4216	3.25
33.4256	2.89
33.4296	2.74
33.4296	2.92
  33.43	2.49
33.4323	2.97
33.4383	3.15
33.4389	3.03
33.4432	2.83
33.4436	2.85
  33.45	2.38
33.4517	3.07
 33.452	3.15
33.4523	2.95
33.4583	2.81
33.4656	2.83
33.4688	2.93
  33.47	2.68
33.4716	2.89
33.4803	2.87
33.4835	2.34
 33.485	2.69
 33.485	3.02
  33.49	2.54
33.4918	3.01
33.4923	2.97
33.4968	2.28
 33.497	2.95
   33.5	1.63
33.5051	2.96
33.5075	3.05
33.5076	3.05
  33.51	2.62
 33.513	2.83
33.5191	3.06
 33.525	2.99
33.5277	2.62
33.5314	3.15
33.5317	2.69
33.5345	2.44
33.5383	 2.6
  33.54	2.51
33.5442	2.41
33.5461	2.37
 33.548	2.44
33.5522	2.25
33.5522	2.52
33.5576	2.32
 33.558	2.45
  33.56	2.52
 33.564	2.27
33.5667	 2.4
33.5676	2.38
33.5676	2.38
33.5769	2.27
 33.578	2.39
 33.581	2.74
  33.59	2.52
33.5981	1.84
33.6015	2.22
33.6015	2.27
  33.61	2.58
 33.611	2.21
33.6138	2.04
 33.623	2.39
33.6291	1.97
  33.63	2.44
33.6307	2.21
33.6377	2.12
 33.639	2.26
33.6446	2.23
33.6455	1.78
 33.647	2.41
  33.65	2.54
  33.66	2.23
 33.662	2.02
33.6642	2.06
33.6692	2.16
  33.67	2.27
33.6763	2.19
33.6767	1.98
33.6815	2.24
33.6867	1.96
  33.69	2.08
33.6915	2.56
33.6967	2.05
   33.7	1.82
 33.702	2.13
33.7094	1.99
  33.71	1.83
  33.71	1.95
33.7105	1.91
 33.718	 1.7
 33.722	1.83
33.7239	2.13
 33.729	1.83
  33.73	1.79
 33.733	1.92
33.7393	1.95
 33.746	1.47
33.7467	1.93
 33.747	 2.1
 33.747	2.12
  33.75	1.65
 33.753	1.91
33.7546	2.24
33.7592	1.94
33.7616	1.99
33.7685	1.97
  33.77	1.83
 33.772	2.12
33.7724	2.08
33.7742	   2
33.7769	1.35
  33.78	2.13
 33.788	1.55
33.7892	1.96
33.7893	1.92
 33.792	 1.9
33.7962	2.07
   33.8	1.84
33.8017	1.73
33.8039	1.95
 33.809	 1.9
  33.81	2.08
33.8104	1.81
 33.816	1.99
33.8242	 1.7
33.8249	1.84
 33.827	1.98
 33.827	2.05
  33.83	1.89
 33.836	1.87
33.8367	1.79
33.8467	1.79
 33.847	1.71
 33.855	1.36
33.8555	 1.8
33.8555	2.23
33.8604	1.86
33.8624	2.11
 33.864	1.84
33.8693	1.93
  33.87	2.02
33.8742	1.67
33.8763	1.95
  33.88	1.75
33.8809	1.96
33.8854	1.77
33.8878	1.86
33.8967	1.71
   33.9	2.04
33.9009	   2
33.9042	1.73
33.9078	1.69
33.9078	1.78
33.9149	1.23
33.9217	2.02
33.9217	1.65
 33.924	1.84
33.9354	 1.8
33.9404	1.92
 33.943	1.81
33.9467	1.67
33.9494	1.97
33.9555	1.63
33.9555	1.71
33.9604	1.78
 33.961	1.87
33.9754	 1.8
33.9854	1.68
 33.986	1.84
 33.986	1.85
33.9979	1.73
 34.002	1.98
34.0044	1.24
 34.005	 2.1
34.0104	1.62
 34.014	1.72
34.0141	1.63
34.0274	1.88
34.0279	1.57
 34.041	2.23
34.0441	 1.7
 34.047	1.79
34.0516	1.61
34.0576	1.89
34.0604	1.53
34.0716	1.68
 34.073	1.84
34.0854	1.78
 34.095	 1.8
34.0966	1.79
34.0979	1.95
34.1014	1.28
34.1064	2.13
34.1064	2.92
34.1104	1.82
 34.114	1.89
34.1216	1.78
34.1302	1.64
34.1302	1.66
 34.132	 1.9
34.1354	1.91
34.1472	1.96
34.1491	1.79
 34.152	   2
34.1618	1.71
34.1629	1.68
  34.17	0.94
 34.172	1.95
34.1754	1.79
34.1841	1.93
34.1854	1.86
 34.189	 1.9
34.1991	1.79
34.2103	1.77
 34.218	1.94
34.2187	1.62
34.2187	1.72
  34.22	 1.4
34.2216	1.72
34.2311	1.75
34.2353	1.87
34.2388	1.82
 34.244	1.96
34.2491	1.77
34.2603	1.88
 34.265	1.88
34.2778	1.71
34.2803	1.66
34.2803	1.77
 34.285	1.91
 34.288	1.77
34.2942	1.77
34.2966	1.58
   34.3	0.78
 34.302	1.85
 34.302	1.99
34.3103	1.78
  34.32	1.57
34.3219	1.82
34.3228	1.74
 34.325	1.99
 34.325	2.05
 34.328	1.98
 34.328	2.05
34.3304	1.71
34.3304	1.85
34.3353	1.74
34.3381	1.83
 34.347	1.82
 34.347	1.98
34.3491	1.73
  34.36	2.06
34.3603	1.79
34.3635	1.71
34.3688	1.47
34.3709	1.66
34.3728	1.74
 34.378	1.69
34.3835	1.66
 34.385	1.82
 34.385	1.86
34.3891	1.76
34.3991	1.65
   34.4	 1.4
 34.408	 1.8
 34.408	1.86
34.4091	1.67
34.4141	1.78
34.4212	1.49
34.4212	1.75
34.4265	1.71
34.4289	1.68
  34.43	1.49
34.4353	1.78
 34.436	 1.8
 34.436	1.89
34.4465	1.81
 34.456	1.79
 34.456	1.89
34.4603	 1.8
34.4728	1.79
 34.473	1.79
34.4789	1.37
 34.484	1.87
 34.499	1.69
   34.5	1.83
34.5103	1.75
 34.518	1.83
 34.518	1.86
 34.524	1.74
  34.53	1.33
34.5353	1.71
34.5431	2.05
 34.549	1.65
34.5603	1.71
 34.564	1.77
 34.564	1.86
  34.57	1.42
34.5734	1.53
 34.574	1.79
  34.58	1.77
  34.58	1.84
34.5853	1.73
34.5965	1.69
 34.607	1.61
 34.607	1.84
  34.61	1.55
34.6103	1.72
 34.624	1.69
 34.626	1.61
 34.626	1.61
34.6353	1.78
34.6436	1.46
 34.648	1.61
 34.648	1.64
 34.649	 1.7
 34.654	1.85
34.6714	1.71
 34.672	1.64
 34.672	1.68
34.6828	1.46
34.6844	1.85
 34.686	1.64
 34.686	1.68
 34.702	1.65
34.7081	1.87
 34.722	1.66
34.7234	1.73
34.7317	1.81
 34.735	1.64
34.7436	1.79
 34.752	1.74
34.7554	1.76
34.7661	2.01
  34.77	1.38
34.7732	1.87
 34.781	1.49
 34.781	 1.8
34.7862	1.77
34.7968	1.78
 34.803	1.66
34.8099	1.73
  34.81	1.66
34.8205	1.87
  34.83	1.75
 34.833	1.69
34.8371	1.84
 34.856	1.75
 34.885	1.51
34.8853	1.81
 34.901	1.62
 34.901	1.64
 34.908	1.74
 34.926	1.55
 34.952	 1.7
  34.97	 1.5
 34.979	1.65
 34.983	1.62
 35.001	1.52
 35.026	 1.5
 35.048	1.84
 35.075	1.82
 35.093	1.63
  35.11	1.62
 35.145	1.77
 35.165	1.71
35.1811	1.57
 35.197	1.93
 35.215	1.79
 35.236	1.82
 35.263	1.87
 35.277	1.94
 35.294	1.87
   35.3	 1.5
   35.3	1.68
  35.32	1.47
  35.32	1.58
 35.322	1.81
 35.346	 1.9
  35.38	1.52
 35.386	1.81
 35.406	1.72
  35.41	1.47
 35.428	1.63
 35.447	1.84
  35.46	1.55
 35.491	1.74
 35.514	1.85
 35.537	1.75
 35.554	1.77
 35.574	1.78
35.5862	1.87
 35.597	1.69
 35.615	1.68
 35.682	1.94
35.7512	1.38
35.7617	 1.8
 35.798	2.04
 35.816	1.95
 35.821	1.94
35.8306	1.78
 35.838	1.97
  35.86	1.59
 35.882	1.85
 35.906	1.85
 35.931	1.82
35.9413	2.61
  35.95	1.78
  35.97	1.67
 35.996	1.66
 36.044	1.76
36.0495	2.83
  36.05	1.33
 36.069	1.77
  36.09	1.83
 36.115	1.83
 36.135	1.83
  36.14	1.43
  36.14	1.55
 36.159	1.74
 36.174	1.76
 36.218	1.73
  36.23	1.51
  36.23	1.58
36.2357	1.91
 36.241	1.83
36.2658	1.55
 36.266	1.74
 36.282	 1.9
 36.307	1.73
 36.333	1.77
  36.34	 1.6
 36.374	1.36
   36.4	1.61
  36.45	1.74
  36.49	1.52
36.5058	1.88
36.6067	1.82
 36.672	1.65
  36.69	1.59
 36.715	1.85
 36.738	1.71
 36.752	1.77
36.7712	1.41
 36.788	1.83
  36.81	1.62
36.8312	1.86
 36.833	1.72
 36.929	1.79
 36.966	1.67
36.9827	1.65
 37.009	1.66
  37.03	1.65
  37.04	1.48
 37.075	1.83
  37.09	1.76
 37.124	1.74
 37.146	1.74
37.1961	1.34
  37.28	1.57
37.4085	1.58
  37.42	1.76
37.4423	1.53
 37.444	1.73
37.4815	1.67
  37.49	1.83
  37.56	1.53
  37.63	1.58
37.6571	1.26
37.6918	1.31
 37.739	 1.7
  37.74	1.56
 37.771	1.68
 37.812	1.68
37.8327	1.65
 37.851	1.71
37.9254	1.65
  37.97	 1.5
 37.986	 1.6
38.0083	1.55
38.0083	1.37
 38.031	1.61
 38.064	1.58
  38.09	1.53
  38.09	1.58
38.1027	1.32
 38.106	1.58
 38.145	 1.6
38.1687	1.75
38.1839	1.49
38.1839	1.43
  38.21	1.35
38.2534	1.36
38.2846	1.35
 38.289	1.53
  38.33	1.31
  38.33	 1.4
  38.34	 1.4
 38.348	1.38
 38.424	1.49
  38.44	1.28
  38.44	1.67
38.4552	1.51
  38.46	1.56
  38.48	1.64
  38.51	1.83
 38.549	1.57
  38.58	1.37
 38.615	1.46
  38.64	1.42
38.6733	1.29
  38.69	1.49
  38.74	1.32
38.7459	1.64
 38.784	1.51
38.7848	1.55
  38.79	1.46
  38.79	1.58
38.8029	1.21
  38.86	1.26
 38.919	1.38
 38.975	1.47
  39.01	1.33
 39.044	1.43
 39.107	1.53
  39.11	 1.2
  39.11	1.34
  39.14	1.43
39.1749	1.43
  39.24	1.19
 39.275	1.42
  39.28	1.17
  39.29	1.21
39.2925	1.34
  39.31	1.26
39.3232	   1
 39.338	1.55
39.3664	1.76
  39.37	 1.1
 39.414	1.36
39.4235	1.21
  39.43	1.06
39.4512	1.54
  39.47	1.26
39.5057	1.24
 39.539	1.19
  39.59	1.16
 39.605	1.39
  39.66	1.16
 39.665	1.33
  39.73	1.33
39.7565	1.03
  39.77	1.19
  39.78	1.03
39.8116	1.61
 39.832	1.38
  39.85	0.83
39.8935	1.49
 39.905	1.25
 39.964	1.23
40.0099	1.13
  40.03	1.27
 40.103	1.37
 40.162	1.33
40.1859	 1.1
 40.189	 1.2
 40.245	1.15
40.2535	1.64
  40.28	0.82
 40.311	1.16
  40.32	0.92
40.3446	 1.5
  40.36	1.32
  40.37	0.68
   40.4	0.92
40.4124	0.87
  40.43	0.76
 40.492	1.43
40.4942	1.17
  40.52	1.25
 40.558	1.12
  40.59	1.35
 40.624	1.45
  40.69	1.27
  40.71	1.31
  40.72	1.31
40.7314	1.32
40.7314	1.08
40.7415	1.53
 40.756	1.28
  40.76	 1.4
  40.79	1.32
  40.81	1.43
  40.81	1.53
 40.822	0.97
 40.823	 1.5
40.8298	1.55
  40.83	1.49
  40.83	1.49
  40.83	1.49
  40.83	1.49
  40.83	1.49
40.8325	1.02
40.8366	1.65
40.8435	1.53
  40.85	 1.3
  40.85	 1.3
40.8503	1.42
40.8571	 1.4
40.8639	1.47
40.8707	1.47
40.8775	1.42
40.8843	1.38
  40.89	 0.9
  40.89	 1.1
40.8911	1.43
40.8976	1.15
 40.898	1.42
40.9048	1.34
  40.91	1.09
40.9116	1.33
40.9184	1.33
40.9252	1.33
 40.932	1.18
40.9388	1.24
  40.94	1.14
40.9456	1.35
40.9525	1.39
40.9593	1.32
40.9661	1.32
40.9729	1.28
40.9797	1.46
  40.98	1.14
40.9865	1.28
  40.99	1.07
  40.99	1.07
 40.994	1.34
40.9995	1.22
41.0049	1.28
41.0104	1.42
41.0158	1.45
41.0213	1.28
41.0267	1.38
  41.03	1.15
41.0322	 1.4
41.0376	1.45
  41.04	1.25
41.0431	1.35
41.0485	1.29
 41.054	1.42
 41.056	1.07
41.0594	1.35
41.0649	 1.2
  41.07	1.23
41.0703	1.35
  41.09	1.07
41.0962	1.27
41.1016	1.17
41.1022	1.02
41.1071	1.22
  41.11	1.17
41.1125	1.21
 41.118	1.06
 41.119	 1.1
41.1234	0.92
41.1289	1.16
  41.13	1.11
41.1343	1.19
41.1398	1.03
41.1452	1.25
  41.15	1.28
  41.15	 1.3
41.1507	1.15
41.1561	1.21
41.1616	1.12
 41.167	1.05
  41.17	1.27
  41.17	1.37
41.1725	 1.2
41.1779	1.34
41.1834	 1.2
 41.185	0.93
41.1888	1.23
  41.19	   1
41.1984	1.44
41.2031	1.44
41.2093	1.41
  41.21	1.14
41.2154	1.36
  41.22	1.15
41.2202	 1.3
41.2256	1.42
41.2277	1.38
41.2283	1.36
 41.229	1.16
41.2294	1.47
41.2297	1.28
  41.23	1.26
41.2304	1.35
41.2331	1.01
41.2379	1.03
41.2433	1.06
41.2488	1.13
 41.251	0.96
41.2542	0.96
41.2597	0.98
  41.26	0.95
41.2651	1.06
41.2706	1.03
 41.276	1.22
  41.28	1.16
  41.28	1.37
41.2815	1.22
41.2869	1.17
41.2924	1.34
41.2978	1.02
   41.3	1.19
41.3033	1.09
41.3087	1.13
41.3142	1.07
 41.317	 0.8
41.3196	1.03
  41.32	1.09
  41.32	1.09
41.3205	1.02
41.3251	1.08
41.3346	1.04
  41.34	1.15
  41.34	1.21
41.3401	1.11
41.3455	1.08
 41.351	0.86
41.3564	1.04
  41.36	1.04
  41.36	1.05
41.3619	0.85
41.3673	1.09
41.3728	0.99
41.3782	1.08
41.3813	1.05
41.3837	0.31
41.3891	 0.6
  41.39	1.02
41.3946	0.62
41.3973	0.53
41.3986	0.56
   41.4	0.33
 41.407	0.28
41.4141	0.44
  41.42	1.27
41.4211	0.64
41.4282	0.55
41.4352	0.66
41.4475	0.78
41.4545	0.82
41.4616	0.59
41.4686	0.59
41.4748	 0.7
 41.481	0.69
41.4827	0.51
 41.485	1.19
 41.485	1.69
41.4897	0.84
41.4968	0.72
   41.5	1.56
41.5019	1.22
41.5038	0.61
41.5109	0.63
41.5179	0.55
41.5249	0.65
41.5314	1.15
 41.532	0.59
 41.539	0.77
 41.546	0.52
 41.551	0.22
41.5531	0.73
41.5601	0.73
41.5672	0.69
  41.57	0.67
41.5795	0.82
41.5865	0.77
41.5935	0.92
41.6006	0.89
41.6076	0.82
 41.613	0.58
41.6147	0.77
41.6217	0.83
41.6287	0.81
41.6318	1.36
41.6358	0.87
41.6428	0.74
41.6499	0.83
41.6507	 0.9
41.6569	0.84
41.6639	0.86
 41.671	0.88
 41.678	0.97
 41.685	   1
41.6921	1.06
 41.696	0.53
41.6991	0.98
41.7114	1.07
41.7185	1.02
41.7255	1.09
41.7326	0.84
41.7396	0.93
41.7466	0.94
41.7528	1.31
41.7537	1.08
41.7582	1.13
41.7607	0.88
41.7677	0.95
41.7748	0.94
 41.781	   1
41.7818	0.92
41.7889	0.86
41.7959	1.01
41.8029	0.95
  41.81	1.03
 41.817	0.98
 41.824	1.11
41.8311	0.95
41.8434	1.05
41.8504	0.91
41.8575	1.02
41.8645	1.03
 41.865	0.99
41.8716	   1
41.8786	1.07
41.8856	1.06
41.8927	1.07
41.8997	1.07
41.9067	1.14
41.9138	1.12
41.9208	1.17
41.9279	1.27
41.9349	 1.2
41.9419	1.16
 41.949	1.28
 41.956	1.25
 41.963	1.31
41.9743	0.73
41.9754	1.27
41.9824	1.26
41.9894	 1.3
41.9965	1.14
42.0148	1.22
42.0741	1.22
42.0746	0.62
42.0778	1.41
42.1041	1.29
42.1072	1.36
42.1144	1.28
42.1246	1.27
42.1349	 1.4
42.1369	1.23
42.1451	1.43
42.1554	1.43
42.1656	1.29
42.1759	1.42
42.1861	1.39
42.1905	1.13
42.1957	0.85
42.1964	1.31
42.1989	1.56
42.2066	1.26
42.2169	1.35
42.2271	1.36
42.2374	1.38
42.2476	1.36
42.2579	 1.3
42.2681	1.19
42.2784	1.21
  42.28	0.71
42.2886	1.21
  42.29	0.53
42.2907	1.26
42.2989	 1.2
42.3091	 1.2
 42.317	1.24
42.3194	1.25
42.3296	1.24
  42.33	1.07
42.3399	1.04
 42.345	1.15
42.3501	1.28
42.3604	1.11
42.3706	1.13
42.3809	1.07
42.3911	1.13
42.4014	1.08
42.4116	1.28
42.4171	1.02
42.4219	1.24
  42.43	0.71
42.4321	1.12
42.4424	1.06
42.4444	0.99
42.4526	0.86
42.4629	 1.1
42.4731	0.77
42.4834	1.14
42.4936	0.85
42.4987	0.96
42.5039	1.03
42.5141	1.11
42.5244	1.07
42.5278	1.25
42.5346	1.01
42.5449	1.05
42.5551	0.89
42.5654	0.97
42.5685	0.96
  42.57	 0.9
42.5756	1.06
42.5859	0.94
42.5961	0.91
42.5982	0.82
   42.6	0.85
42.6064	1.12
42.6166	1.15
42.6269	   1
42.6303	1.13
42.6303	0.86
42.6371	1.07
42.6474	1.13
42.6576	0.96
 42.661	0.95
42.6679	1.13
42.6781	1.01
42.6864	0.56
42.6884	1.12
42.6986	1.11
   42.7	0.79
42.7089	1.08
  42.71	0.98
42.7191	1.14
42.7222	0.97
42.7275	1.41
42.7294	1.06
42.7396	   1
42.7499	0.95
42.7519	1.04
 42.758	   1
42.7601	0.95
42.7603	1.48
42.7603	0.24
42.7704	0.84
42.7806	1.19
42.7849	1.18
  42.79	1.08
42.7909	0.88
42.8011	0.99
42.8114	0.97
42.8216	1.02
 42.822	1.09
42.8319	1.07
42.8421	   1
42.8423	0.27
  42.85	1.04
42.8524	1.02
42.8626	0.96
42.8729	1.18
42.8831	1.08
42.9036	1.05
42.9057	0.82
42.9178	1.02
42.9241	0.94
42.9446	 1.2
  42.96	1.07
42.9651	1.13
42.9856	1.08
  42.99	0.36
  42.99	1.07
  42.99	1.07
43.0062	1.03
43.0164	1.09
43.0267	0.96
43.0275	1.16
43.0275	0.96
43.0308	0.85
43.0352	 1.5
43.0369	 1.1
43.0472	0.96
43.0574	1.11
43.0595	0.94
43.0639	0.28
43.0677	1.02
43.0779	0.91
43.0882	1.16
43.0926	1.21
43.0984	1.02
43.1138	0.87
 43.114	1.08
 43.124	0.78
43.1377	0.63
 43.139	0.96
  43.18	0.98
43.2198	0.75
 43.261	0.99
 43.293	1.01
43.2936	0.29
43.3223	1.46
 43.324	0.97
 43.356	1.03
43.3675	0.93
43.3691	1.03
43.4129	0.97
43.4129	0.74
 43.422	0.92
43.4495	 0.7
 43.503	0.87
 43.536	0.94
 43.566	0.87
43.5726	1.37
43.5972	0.72
 43.599	0.82
43.6186	1.65
 43.625	1.15
 43.665	1.15
43.6793	0.69
 43.746	1.16
43.7531	0.29
 43.778	1.19
 43.809	0.84
 43.822	1.34
43.8352	0.51
 43.841	0.87
 43.867	0.98
43.8689	1.09
43.8882	 0.9
 43.908	1.01
 43.988	0.84
 44.021	0.98
44.2351	1.45
 44.263	1.11
44.2855	0.92
44.2866	1.05
 44.294	1.08
 44.326	0.95
 44.352	1.02
 44.393	1.06
44.5198	1.29
44.5622	0.88
44.5713	 1.1
 44.661	1.02
  44.69	1.04
 44.723	1.01
44.7763	0.79
44.8044	1.27
44.8559	0.84
45.0891	1.21
 45.135	0.57
45.1406	 1.2
 45.223	0.83
45.2614	0.76
45.2699	 1.1
45.2699	0.71
45.3569	0.62
45.4253	0.93
  45.71	1.06
45.9057	0.52
45.9619	0.78
46.0386	0.51
46.0948	0.54
46.1276	0.75
46.1707	0.73
46.2306	0.37
46.3385	0.61
46.3862	0.86
46.4094	0.24
46.4094	0.67
46.4209	0.72
46.4645	0.59
46.5419	0.73
 46.648	0.47
46.7224	0.63
46.7392	0.59
46.8196	0.93
46.8484	0.25
46.8692	0.58
46.9158	0.24
47.0239	0.45
47.0477	0.47
47.0695	0.47
47.2262	0.35
47.2461	0.25
 47.372	0.35
47.4048	0.46
47.4127	0.37
47.4957	0.01
 47.497	0.28
47.5833	0.52
47.7212	0.19
47.7221	0.49
47.7618	0.38
47.8064	0.24
47.8907	0.06
47.8907	0.16
47.9217	 0.3
48.0047	0.46
48.0431	0.52
48.2428	0.47
48.4006	0.27
48.4809	0.28
48.5288	0.11
 48.576	0.18
48.6232	0.19
48.6435	0.22
 48.719	0.36
48.7379	0.05
48.7979	0.29
48.8593	0.21
48.8661	0.11
48.8783	0.29
48.8783	-0.1
49.0547	0.08
49.0762	0.29
49.4072	0.29
49.4219	0.52
49.4365	0.22
 49.603	0.31
49.6196	0.22
 49.656	0.42
49.7859	0.16
49.8762	0.43
49.9142	0.38
49.9159	0.26
50.1063	0.01
50.2362	0.01
50.2487	-0.2
50.3662	0.08
  50.38	0.07
50.4962	0.05
50.5549	0.45
50.5549	0.27
50.5881	0.51
50.8475	0.52
50.8475	0.11
  50.89	0.27
51.0762	0.25
51.2553	0.22
 51.266	0.11
51.3466	0.33
51.3808	0.32
51.4344	0.34
51.5748	0.09
51.6133	0.16
51.7319	0.08
51.9092	 0.3
51.9092	0.39
51.9872	0.21
 52.049	0.07
 52.049	0.51
 52.175	 0.2
 52.175	0.11
52.3683	0.23
52.3865	0.06
52.3865	0.02
52.4225	0.11
52.4225	   0
52.5125	0.11
52.5285	0.13
52.5307	0.38
52.5307	0.37
52.5813	0.22
52.6036	0.26
52.6632	0.06
52.6632	-0.2
52.6632	0.13
  52.71	0.08
52.7229	0.11
 52.724	0.02
52.7484	0.53
52.7484	0.27
52.7801	0.24
 52.791	 0.1
  52.85	0.29
  52.85	0.06
52.8675	0.38
52.9095	0.22
52.9344	0.53
52.9943	0.45
53.0063	0.67
53.0109	0.55
53.0588	0.14
53.0588	   0
53.0639	-0.2
53.0874	0.49
53.1202	0.27
53.1582	0.24
53.1582	   0
53.1639	0.09
53.2403	0.09
53.3129	0.29
53.3155	0.45
53.3925	0.15
53.4029	0.38
 53.477	0.02
 53.477	0.01
53.5668	0.35
53.5711	0.28
53.6144	 0.4
53.6542	0.27
53.6677	0.21
 53.687	0.02
 53.721	0.09
53.7304	0.45
53.7307	0.43
 53.742	0.16
53.7748	0.24
 53.818	0.27
53.8763	 0.2
 53.925	0.29
53.9388	0.54
53.9388	0.29
 53.971	0.52
 53.971	0.53
53.9835	0.39
54.0038	0.24
54.0365	0.47
 54.066	0.04
54.0693	0.15
54.1021	0.38
54.1348	0.37
 54.162	0.06
54.1676	0.59
54.1977	0.07
54.2004	0.07
54.2332	0.28
54.2332	0.37
54.2422	0.04
54.2659	0.17
54.2659	0.38
54.2987	0.02
54.3205	0.06
54.3296	 0.7
54.3861	 0.3
54.3989	0.38
54.4132	0.47
54.4184	0.04
54.4344	 0.1
54.4994	0.24
54.5194	0.41
54.5573	0.31
54.6034	0.07
54.6381	0.34
54.6603	0.45
54.6736	0.35
54.6879	0.53
54.6978	0.13
 54.747	0.35
 54.747	0.27
54.7685	0.09
54.7747	 0.6
54.7892	0.16
  54.81	0.49
54.8118	0.11
54.8173	   0
54.8236	0.31
 54.831	0.33
54.8329	 0.6
54.8329	0.32
54.8355	0.18
54.8546	 0.2
54.8661	0.04
54.8841	0.22
54.8963	0.26
54.9161	0.08
54.9178	0.32
54.9368	-0.9
54.9397	0.32
54.9471	0.07
54.9471	0.13
54.9471	0.13
54.9808	0.94
54.9969	0.06
54.9969	0.43
     55	-0.9
     55	0.51
 55.002	0.12
55.0095	0.13
55.0158	0.29
55.0221	0.13
55.0244	0.47
55.0247	0.22
55.0263	0.23
 55.028	0.66
55.0296	0.45
55.0405	0.42
55.0634	0.33
55.0731	0.53
55.0736	0.38
55.0789	0.38
55.0842	0.08
 55.092	0.49
55.0952	 0.4
55.0978	0.29
55.1081	0.72
55.1081	0.09
55.1191	0.22
55.1226	0.54
55.1588	0.45
55.1621	0.37
55.1716	0.05
55.1716	 0.3
55.1767	0.51
55.1853	0.51
55.2009	0.13
55.2225	0.45
55.2475	0.29
55.3046	0.05
55.3389	0.45
55.3413	0.36
55.3969	0.28
55.4083	0.81
55.4083	0.71
55.4166	0.47
55.4304	0.56
55.4361	0.45
55.4676	0.82
55.5202	0.41
55.5222	0.27
55.5224	0.91
 55.587	0.52
55.6002	0.15
55.6132	0.54
55.6424	 0.5
 55.697	0.33
 55.751	0.19
55.7516	0.39
55.7961	0.46
55.8549	0.67
55.8662	0.36
55.8827	 0.4
55.8979	0.05
55.9241	0.53
  55.97	 0.5
56.0255	0.66
56.0558	0.58
56.0878	 0.4
 56.131	0.52
 56.159	0.46
56.2184	0.69
56.2302	0.73
56.2575	0.45
56.2648	0.21
56.3014	0.37
56.3038	0.44
56.3726	0.65
   56.4	0.61
 56.434	0.14
56.4349	0.78
56.4794	0.48
56.4794	0.35
56.5061	0.71
56.6044	 0.4
  56.61	0.78
  56.64	0.67
56.6615	0.45
56.7137	0.84
56.7686	0.58
56.7686	0.59
  56.87	0.72
56.8704	0.55
56.9124	0.97
56.9919	0.79
     57	0.66
57.0184	0.84
57.0813	0.98
  57.09	0.67
  57.11	0.73
57.1244	0.63
57.1717	0.71
  57.18	0.93
57.2008	0.52
57.2039	0.52
57.2039	0.47
57.2304	0.58
57.2503	 0.7
57.2742	1.06
   57.3	0.86
  57.32	0.74
57.3231	0.74
  57.38	0.81
57.3856	0.68
  57.43	0.88
   57.5	0.73
57.5668	 0.9
57.5748	0.84
57.6675	0.61
57.7456	0.45
57.7735	1.18
57.7828	0.75
57.8086	0.93
57.8307	1.08
57.9029	0.66
57.9076	0.45
  57.91	0.81
57.9465	0.85
57.9617	0.99
58.0132	0.57
58.0792	1.04
 58.114	0.42
58.1308	0.93
58.1896	0.99
 58.216	1.01
  58.23	0.75
58.2854	1.01
58.3529	0.94
58.3529	1.01
58.4032	1.04
58.4924	1.25
 58.521	1.08
58.5544	0.83
58.6224	0.95
58.6224	1.06
58.6388	0.51
58.6388	0.78
58.7419	0.99
58.7419	1.12
58.7537	0.96
58.7537	   1
58.7537	1.11
   58.8	0.78
58.8745	0.95
58.9056	0.98
59.0512	0.95
59.0512	0.87
59.0954	0.93
59.1543	-0.1
  59.16	0.68
  59.19	 0.7
59.2132	1.27
  59.48	0.67
59.5686	1.07
59.5962	0.58
59.5962	0.67
  59.73	0.75
  59.76	0.63
60.1808	0.97
  60.19	0.63
  60.23	0.47
60.4357	0.56
60.4357	0.45
 60.534	0.19
  60.61	0.71
  60.65	 0.5
60.6698	0.94
 60.686	0.42
  60.79	0.59
60.9364	0.64
  60.98	 0.7
61.0101	0.48
  61.03	0.67
61.0542	0.51
61.1603	   1
61.1721	0.57
61.1878	0.68
61.2752	0.22
  61.39	0.51
  61.43	0.37
61.4504	   1
61.5108	0.64
61.6404	0.57
61.6455	0.77
 61.687	0.24
61.7336	0.25
61.9215	 0.9
61.9355	0.46
62.0177	0.99
  62.25	0.38
   62.3	0.38
62.3317	0.84
62.3844	0.77
  62.55	0.35
 62.775	0.62
  63.06	0.92
63.2832	1.45
63.3284	0.71
 63.345	0.76
63.3821	0.95
63.4015	0.72
63.4344	0.99
63.4836	0.73
 63.535	0.59
  63.66	0.31
  63.97	0.31
  63.97	0.34
63.9986	1.21
64.0534	1.09
  64.17	0.36
  64.18	0.47
  64.22	0.29
   64.3	0.47
64.3243	0.86
64.4106	 1.1
64.4226	0.29
64.4644	   1
64.6294	0.13
64.7954	0.96
  64.86	0.35
64.9013	0.14
  65.01	0.47
65.0518	1.15
65.0674	1.06
65.0894	1.25
65.0959	1.13
65.1023	1.08
65.1114	0.88
65.1153	0.83
65.1192	0.72
65.1438	0.05
65.1684	1.03
65.1943	0.99
65.2332	0.35
  65.24	 0.5
 65.272	0.81
65.3864	   1
   65.6	0.75
   65.6	0.81
65.7554	1.45
65.7625	0.16
65.8006	0.95
65.8482	1.36
  65.94	0.82
  66.11	0.67
66.1101	1.06
66.1543	0.94
66.1802	1.07
66.1924	1.33
66.2061	1.07
  66.21	0.82
66.2183	1.46
 66.229	1.37
66.2504	 1.1
66.2641	1.74
66.2763	1.33
66.2961	0.04
66.3037	   1
66.3159	1.02
  66.38	0.62
67.0073	 1.3
67.2391	1.31
67.5173	1.36
